trials.thisRepN,trials.thisTrialN,trials.thisN,trials.thisIndex,thisRow.t,notes,trial.started,fixation.started,key_resp.started,fixation.stopped,trial.stopped,key_resp.keys,key_resp.corr,key_resp.rt,key_resp.duration,tilt,participant,session,date,expName,psychopyVersion,frameRate,expStart,
0,0,0,0,0.014314400032162666,,0.006570100085809827,0.014314400032162666,1.055382499936968,1.058192600030452,2.126945200143382,down,1,1.061993399867788,None,1,188245,001,2023-09-14_09h40.22.250,signal detection final- tutorial 2,2023.2.1,59.96861242661847,2023-09-14 09h40.30.778396 +0530,
1,0,1,0,2.1446924000047147,,2.1340622999705374,2.1446924000047147,3.1409088000655174,3.1409088000655174,3.9924449999816716,up,1,0.8490491998381913,None,0,188245,001,2023-09-14_09h40.22.250,signal detection final- tutorial 2,2023.2.1,59.96861242661847,2023-09-14 09h40.30.778396 +0530,
2,0,2,0,4.009893200127408,,3.996918600052595,4.009893200127408,5.006458400050178,5.006458400050178,5.540864600101486,up,1,0.5319348000921309,None,0,188245,001,2023-09-14_09h40.22.250,signal detection final- tutorial 2,2023.2.1,59.96861242661847,2023-09-14 09h40.30.778396 +0530,
3,0,3,0,5.55869790003635,,5.543798400089145,5.55869790003635,6.555187700083479,6.555187700083479,7.056551499990746,up,1,0.49905220000073314,None,0,188245,001,2023-09-14_09h40.22.250,signal detection final- tutorial 2,2023.2.1,59.96861242661847,2023-09-14 09h40.30.778396 +0530,
4,0,4,0,7.0741437000688165,,7.061006600037217,7.0741437000688165,8.070437100017443,8.070437100017443,8.655072499997914,down,1,0.5702510999981314,None,-4,188245,001,2023-09-14_09h40.22.250,signal detection final- tutorial 2,2023.2.1,59.96861242661847,2023-09-14 09h40.30.778396 +0530,
5,0,5,0,8.6726375001017,,8.659513000166044,8.6726375001017,9.669149199966341,9.669149199966341,10.369786800118163,up,1,0.6981130000203848,None,0,188245,001,2023-09-14_09h40.22.250,signal detection final- tutorial 2,2023.2.1,59.96861242661847,2023-09-14 09h40.30.778396 +0530,
6,0,6,0,10.387732800096273,,10.373282399959862,10.387732800096273,11.384260999970138,11.384260999970138,11.96794050000608,down,1,0.5771789001300931,None,-2,188245,001,2023-09-14_09h40.22.250,signal detection final- tutorial 2,2023.2.1,59.96861242661847,2023-09-14 09h40.30.778396 +0530,
7,0,7,0,11.985689300112426,,11.972430200083181,11.985689300112426,12.982457699952647,12.982457699952647,13.717477600090206,up,1,0.7286515000741929,None,0,188245,001,2023-09-14_09h40.22.250,signal detection final- tutorial 2,2023.2.1,59.96861242661847,2023-09-14 09h40.30.778396 +0530,
8,0,8,0,13.734912100015208,,13.722385399974883,13.734912100015208,14.731353200040758,14.731353200040758,15.349353400059044,down,1,0.6104683000594378,None,-2,188245,001,2023-09-14_09h40.22.250,signal detection final- tutorial 2,2023.2.1,59.96861242661847,2023-09-14 09h40.30.778396 +0530,
9,0,9,0,15.366783899953589,,15.353912600083277,15.366783899953589,16.365788100054488,16.379531200043857,16.83123610005714,down,1,0.4494857999961823,None,-4,188245,001,2023-09-14_09h40.22.250,signal detection final- tutorial 2,2023.2.1,59.96861242661847,2023-09-14 09h40.30.778396 +0530,
10,0,10,0,16.849163900129497,,16.836224100086838,16.849163900129497,17.84512860001996,17.84512860001996,18.563181899953634,up,1,0.7024025002028793,None,0,188245,001,2023-09-14_09h40.22.250,signal detection final- tutorial 2,2023.2.1,59.96861242661847,2023-09-14 09h40.30.778396 +0530,
11,0,11,0,18.580347600160167,,18.56827859999612,18.580347600160167,19.57696590013802,19.57696590013802,20.111762800021097,up,1,0.5174775999039412,None,0,188245,001,2023-09-14_09h40.22.250,signal detection final- tutorial 2,2023.2.1,59.96861242661847,2023-09-14 09h40.30.778396 +0530,
12,0,12,0,20.129351899959147,,20.116194300120696,20.129351899959147,21.12557559995912,21.12557559995912,21.67736790003255,up,1,0.5495495998766273,None,0,188245,001,2023-09-14_09h40.22.250,signal detection final- tutorial 2,2023.2.1,59.96861242661847,2023-09-14 09h40.30.778396 +0530,
13,0,13,0,21.694854100001976,,21.681807100074366,21.694854100001976,22.694256799994037,22.70800060010515,23.192448199959472,up,1,0.48097630008123815,None,0,188245,001,2023-09-14_09h40.22.250,signal detection final- tutorial 2,2023.2.1,59.96861242661847,2023-09-14 09h40.30.778396 +0530,
14,0,14,0,23.2101819999516,,23.19664500001818,23.2101819999516,24.209285200107843,24.223077200120315,24.823972100159153,up,1,0.6046364000067115,None,0,188245,001,2023-09-14_09h40.22.250,signal detection final- tutorial 2,2023.2.1,59.96861242661847,2023-09-14 09h40.30.778396 +0530,
15,0,15,0,24.841824100119993,,24.829036900075153,24.841824100119993,25.838301500072703,25.838301500072703,26.306489400099963,up,1,0.45362630020827055,None,0,188245,001,2023-09-14_09h40.22.250,signal detection final- tutorial 2,2023.2.1,59.96861242661847,2023-09-14 09h40.30.778396 +0530,
16,0,16,0,26.3238087000791,,26.310886499937624,26.3238087000791,27.320212499937043,27.320212499937043,27.9386714999564,up,1,0.6119324997998774,None,0,188245,001,2023-09-14_09h40.22.250,signal detection final- tutorial 2,2023.2.1,59.96861242661847,2023-09-14 09h40.30.778396 +0530,
17,0,17,0,27.95626959996298,,27.943658499978483,27.95626959996298,28.952195700025186,28.952195700025186,29.636354200076312,down,1,0.6748933000490069,None,-1,188245,001,2023-09-14_09h40.22.250,signal detection final- tutorial 2,2023.2.1,59.96861242661847,2023-09-14 09h40.30.778396 +0530,
18,0,18,0,29.654311100021005,,29.64141730009578,29.654311100021005,30.650997100165114,30.650997100165114,31.401418900117278,up,0,0.7482028999365866,None,1,188245,001,2023-09-14_09h40.22.250,signal detection final- tutorial 2,2023.2.1,59.96861242661847,2023-09-14 09h40.30.778396 +0530,
19,0,19,0,31.419104899978265,,31.40608029998839,31.419104899978265,32.41570270014927,32.41570270014927,33.03356819995679,up,1,0.6109548001550138,None,0,188245,001,2023-09-14_09h40.22.250,signal detection final- tutorial 2,2023.2.1,59.96861242661847,2023-09-14 09h40.30.778396 +0530,
20,0,20,0,33.051341500133276,,33.03787799994461,33.051341500133276,34.04774049995467,34.04774049995467,34.74908720003441,down,0,0.6906467000953853,None,0,188245,001,2023-09-14_09h40.22.250,signal detection final- tutorial 2,2023.2.1,59.96861242661847,2023-09-14 09h40.30.778396 +0530,
21,0,21,0,34.766766800079495,,34.75346580008045,34.766766800079495,35.76615349994972,35.77955450001173,36.56389970006421,up,1,0.7951470999978483,None,0,188245,001,2023-09-14_09h40.22.250,signal detection final- tutorial 2,2023.2.1,59.96861242661847,2023-09-14 09h40.30.778396 +0530,
22,0,22,0,36.58186640008353,,36.56775170005858,36.58186640008353,37.57810789998621,37.57810789998621,38.36205610004254,up,1,0.7683565998449922,None,0,188245,001,2023-09-14_09h40.22.250,signal detection final- tutorial 2,2023.2.1,59.96861242661847,2023-09-14 09h40.30.778396 +0530,
23,0,23,0,38.38003070000559,,38.36657810001634,38.38003070000559,39.376523500075564,39.376523500075564,39.96065609995276,down,1,0.5827143001370132,None,-4,188245,001,2023-09-14_09h40.22.250,signal detection final- tutorial 2,2023.2.1,59.96861242661847,2023-09-14 09h40.30.778396 +0530,
24,0,24,0,39.978761499980465,,39.9637364000082,39.978761499980465,40.975193000165746,40.975193000165746,41.759176400024444,up,1,0.7803771998733282,None,0,188245,001,2023-09-14_09h40.22.250,signal detection final- tutorial 2,2023.2.1,59.96861242661847,2023-09-14 09h40.30.778396 +0530,
25,0,25,0,41.77708779997192,,41.764290699968114,41.77708779997192,42.773767000064254,42.773767000064254,43.440061500063166,up,0,0.6550066999625415,None,0,188245,001,2023-09-14_09h40.22.250,signal detection final- tutorial 2,2023.2.1,59.96861242661847,2023-09-14 09h40.30.778396 +0530,
26,0,26,0,43.45907280012034,,43.4420880000107,43.45907280012034,44.44168259995058,44.45539949997328,44.95649920008145,up,1,0.5124712998513132,None,0,188245,001,2023-09-14_09h40.22.250,signal detection final- tutorial 2,2023.2.1,59.96861242661847,2023-09-14 09h40.30.778396 +0530,
27,0,27,0,44.97468909993768,,44.96026089997031,44.97468909993768,45.97044980013743,45.97044980013743,46.48871130007319,down,0,0.5166765998583287,None,0,188245,001,2023-09-14_09h40.22.250,signal detection final- tutorial 2,2023.2.1,59.96861242661847,2023-09-14 09h40.30.778396 +0530,
28,0,28,0,46.50625560013577,,46.493029500124976,46.50625560013577,47.502691300120205,47.502691300120205,48.08652739995159,up,1,0.5761318998411298,None,0,188245,001,2023-09-14_09h40.22.250,signal detection final- tutorial 2,2023.2.1,59.96861242661847,2023-09-14 09h40.30.778396 +0530,
29,0,29,0,48.10484559996985,,48.09027349995449,48.10484559996985,49.10132120014168,49.10132120014168,49.668339899973944,down,1,0.5656260999385267,None,-4,188245,001,2023-09-14_09h40.22.250,signal detection final- tutorial 2,2023.2.1,59.96861242661847,2023-09-14 09h40.30.778396 +0530,
30,0,30,0,49.68683240003884,,49.67008480010554,49.68683240003884,50.6694927001372,50.68323920015246,51.251781299943104,down,1,0.5712955999188125,None,3,188245,001,2023-09-14_09h40.22.250,signal detection final- tutorial 2,2023.2.1,59.96861242661847,2023-09-14 09h40.30.778396 +0530,
31,0,31,0,51.26882710005157,,51.25624609994702,51.26882710005157,52.265293000033125,52.265293000033125,52.91608100011945,up,1,0.6335309001151472,None,0,188245,001,2023-09-14_09h40.22.250,signal detection final- tutorial 2,2023.2.1,59.96861242661847,2023-09-14 09h40.30.778396 +0530,
32,0,32,0,52.93383500003256,,52.92043659999035,52.93383500003256,53.93028700002469,53.93028700002469,54.46453530015424,up,1,0.5264067000243813,None,0,188245,001,2023-09-14_09h40.22.250,signal detection final- tutorial 2,2023.2.1,59.96861242661847,2023-09-14 09h40.30.778396 +0530,
33,0,33,0,54.48253299994394,,54.468027600087225,54.48253299994394,55.47852999996394,55.47852999996394,56.029332200065255,up,1,0.5389388001058251,None,0,188245,001,2023-09-14_09h40.22.250,signal detection final- tutorial 2,2023.2.1,59.96861242661847,2023-09-14 09h40.30.778396 +0530,
34,0,34,0,56.047786300070584,,56.03182839998044,56.047786300070584,57.0304692001082,57.044069699943066,57.61127580003813,down,1,0.5690069999545813,None,-2,188245,001,2023-09-14_09h40.22.250,signal detection final- tutorial 2,2023.2.1,59.96861242661847,2023-09-14 09h40.30.778396 +0530,
35,0,35,0,57.63035520003177,,57.6138647000771,57.63035520003177,58.61246970016509,58.64269270002842,59.143525700084865,up,1,0.5258748999331146,None,0,188245,001,2023-09-14_09h40.22.250,signal detection final- tutorial 2,2023.2.1,59.96861242661847,2023-09-14 09h40.30.778396 +0530,
36,0,36,0,59.16250690002926,,59.14561640005559,59.16250690002926,60.14492310001515,60.15800189995207,60.70831480016932,down,1,0.5548955998383462,None,-1,188245,001,2023-09-14_09h40.22.250,signal detection final- tutorial 2,2023.2.1,59.96861242661847,2023-09-14 09h40.30.778396 +0530,
37,0,37,0,60.72687040013261,,60.71288160001859,60.72687040013261,61.723145300056785,61.723145300056785,62.50658900011331,up,1,0.7724974001757801,None,0,188245,001,2023-09-14_09h40.22.250,signal detection final- tutorial 2,2023.2.1,59.96861242661847,2023-09-14 09h40.30.778396 +0530,
38,0,38,0,62.52623219997622,,62.509910200024024,62.52623219997622,63.52461290010251,63.53854680014774,64.67147679999471,up,1,1.1397903999313712,None,0,188245,001,2023-09-14_09h40.22.250,signal detection final- tutorial 2,2023.2.1,59.96861242661847,2023-09-14 09h40.30.778396 +0530,
39,0,39,0,64.69074210012332,,64.67472860007547,64.69074210012332,65.67347090016119,65.68683160003275,66.60343770007603,down,1,0.9227503000292927,None,1,188245,001,2023-09-14_09h40.22.250,signal detection final- tutorial 2,2023.2.1,59.96861242661847,2023-09-14 09h40.30.778396 +0530,
40,0,40,0,66.62179829995148,,66.60653650015593,66.62179829995148,67.6047517999541,67.61796490009874,68.18504639994353,down,1,0.5709824999794364,None,2,188245,001,2023-09-14_09h40.22.250,signal detection final- tutorial 2,2023.2.1,59.96861242661847,2023-09-14 09h40.30.778396 +0530,
41,0,41,0,68.20414480008185,,68.18810070003383,68.20414480008185,69.18658820004202,69.20006499998271,69.5840108001139,down,1,0.38186859991401434,None,4,188245,001,2023-09-14_09h40.22.250,signal detection final- tutorial 2,2023.2.1,59.96861242661847,2023-09-14 09h40.30.778396 +0530,
42,0,42,0,69.60316410008818,,69.58719420013949,69.60316410008818,70.58567860000767,70.59882670012303,70.99928450002335,down,1,0.40423200000077486,None,3,188245,001,2023-09-14_09h40.22.250,signal detection final- tutorial 2,2023.2.1,59.96861242661847,2023-09-14 09h40.30.778396 +0530,
43,0,43,0,71.01755980006419,,71.00098060001619,71.01755980006419,72.00014959997497,72.01430100016296,72.61513980012387,up,1,0.6024662998970598,None,0,188245,001,2023-09-14_09h40.22.250,signal detection final- tutorial 2,2023.2.1,59.96861242661847,2023-09-14 09h40.30.778396 +0530,
44,0,44,0,72.63390889996663,,72.61954560014419,72.63390889996663,73.61597879999317,73.64614169998094,74.11358530004509,up,1,0.4897006000392139,None,0,188245,001,2023-09-14_09h40.22.250,signal detection final- tutorial 2,2023.2.1,59.96861242661847,2023-09-14 09h40.30.778396 +0530,
45,0,45,0,74.13272930006497,,74.11537780007347,74.13272930006497,75.11496650008485,75.14496150007471,75.89520310005173,down,1,0.7651590998284519,None,-1,188245,001,2023-09-14_09h40.22.250,signal detection final- tutorial 2,2023.2.1,59.96861242661847,2023-09-14 09h40.30.778396 +0530,
46,0,46,0,75.91363730002195,,75.8968901000917,75.91363730002195,76.89656540006399,76.91002209996805,77.72688259999268,up,1,0.8179319000337273,None,0,188245,001,2023-09-14_09h40.22.250,signal detection final- tutorial 2,2023.2.1,59.96861242661847,2023-09-14 09h40.30.778396 +0530,
47,0,47,0,77.74562479997985,,77.73040530015714,77.74562479997985,78.74515840015374,78.75932910013944,79.25901939999312,up,0,0.5095104000065476,None,-1,188245,001,2023-09-14_09h40.22.250,signal detection final- tutorial 2,2023.2.1,59.96861242661847,2023-09-14 09h40.30.778396 +0530,
48,0,48,0,79.27732770005241,,79.26145049999468,79.27732770005241,80.26194360014051,80.27369780000299,80.8576158999931,down,1,0.5941552000585943,None,3,188245,001,2023-09-14_09h40.22.250,signal detection final- tutorial 2,2023.2.1,59.96861242661847,2023-09-14 09h40.30.778396 +0530,
49,0,49,0,80.87656760006212,,80.86688990006223,80.87656760006212,81.87542230007239,81.8890490999911,82.37260330002755,up,1,0.49085840000770986,None,0,188245,001,2023-09-14_09h40.22.250,signal detection final- tutorial 2,2023.2.1,59.96861242661847,2023-09-14 09h40.30.778396 +0530,
50,0,50,0,82.39129279996268,,82.37461970001459,82.39129279996268,83.37426870013587,83.38824980007485,84.05524160014465,down,1,0.6746721998788416,None,-2,188245,001,2023-09-14_09h40.22.250,signal detection final- tutorial 2,2023.2.1,59.96861242661847,2023-09-14 09h40.30.778396 +0530,
51,0,51,0,84.07383879995905,,84.05856190016493,84.07383879995905,85.07294220011681,85.08682329999283,85.67127689998597,up,1,0.5882926001213491,None,0,188245,001,2023-09-14_09h40.22.250,signal detection final- tutorial 2,2023.2.1,59.96861242661847,2023-09-14 09h40.30.778396 +0530,
52,0,52,0,85.68916970002465,,85.67656440008432,85.68916970002465,86.6851892999839,86.6851892999839,87.28535780007951,up,1,0.5926316000986844,None,0,188245,001,2023-09-14_09h40.22.250,signal detection final- tutorial 2,2023.2.1,59.96861242661847,2023-09-14 09h40.30.778396 +0530,
53,0,53,0,87.30428940011188,,87.28789200005122,87.30428940011188,88.28683990007266,88.30047120014206,89.05286230007187,up,1,0.755236699944362,None,0,188245,001,2023-09-14_09h40.22.250,signal detection final- tutorial 2,2023.2.1,59.96861242661847,2023-09-14 09h40.30.778396 +0530,
54,0,54,0,89.06942620011978,,89.05614130012691,89.06942620011978,90.06856020004489,90.08182890014723,90.68220730009489,up,1,0.5978924999944866,None,0,188245,001,2023-09-14_09h40.22.250,signal detection final- tutorial 2,2023.2.1,59.96861242661847,2023-09-14 09h40.30.778396 +0530,
55,0,55,0,90.70028810016811,,90.68469050014392,90.70028810016811,91.6839670999907,91.69708509999327,92.26487400010228,down,1,0.5657299000304192,None,2,188245,001,2023-09-14_09h40.22.250,signal detection final- tutorial 2,2023.2.1,59.96861242661847,2023-09-14 09h40.30.778396 +0530,
56,0,56,0,92.28301050001755,,92.26968919998035,92.28301050001755,93.27963689994067,93.27963689994067,94.0459004000295,up,1,0.760146499844268,None,0,188245,001,2023-09-14_09h40.22.250,signal detection final- tutorial 2,2023.2.1,59.96861242661847,2023-09-14 09h40.30.778396 +0530,
57,0,57,0,94.06449440005235,,94.04793950007297,94.06449440005235,95.04727050010115,95.06093710009009,95.5946085001342,down,1,0.5361888001207262,None,-2,188245,001,2023-09-14_09h40.22.250,signal detection final- tutorial 2,2023.2.1,59.96861242661847,2023-09-14 09h40.30.778396 +0530,
58,0,58,0,95.61337319994345,,95.59729750012048,95.61337319994345,96.59648790000938,96.6095507000573,97.06007610005327,down,1,0.4572819999884814,None,-4,188245,001,2023-09-14_09h40.22.250,signal detection final- tutorial 2,2023.2.1,59.96861242661847,2023-09-14 09h40.30.778396 +0530,
59,0,59,0,97.07899629999883,,97.0625492001418,97.07899629999883,98.06172350002453,98.07485230010934,98.52546359994449,down,1,0.4624602000694722,None,-3,188245,001,2023-09-14_09h40.22.250,signal detection final- tutorial 2,2023.2.1,59.96861242661847,2023-09-14 09h40.30.778396 +0530,
60,0,60,0,98.54415540001355,,98.52788700000383,98.54415540001355,99.52688340004534,99.54057920002379,100.24050169996917,up,1,0.7010449001099914,None,0,188245,001,2023-09-14_09h40.22.250,signal detection final- tutorial 2,2023.2.1,59.96861242661847,2023-09-14 09h40.30.778396 +0530,
61,0,61,0,100.25925730005838,,100.24421939998865,100.25925730005838,101.25603930000216,101.25603930000216,101.95718320016749,down,1,0.6907208999618888,None,3,188245,001,2023-09-14_09h40.22.250,signal detection final- tutorial 2,2023.2.1,59.96861242661847,2023-09-14 09h40.30.778396 +0530,
62,0,62,0,101.97496190015227,,101.9619510001503,101.97496190015227,102.9740764000453,102.98771949997172,103.50627120002173,down,1,0.5277714000549167,None,-4,188245,001,2023-09-14_09h40.22.250,signal detection final- tutorial 2,2023.2.1,59.96861242661847,2023-09-14 09h40.30.778396 +0530,
63,0,63,0,103.52308730012737,,103.51181129994802,103.52308730012737,104.51981920003891,104.51981920003891,105.02158459997736,down,1,0.4991802000440657,None,-5,188245,001,2023-09-14_09h40.22.250,signal detection final- tutorial 2,2023.2.1,59.96861242661847,2023-09-14 09h40.30.778396 +0530,
64,0,64,0,105.03833520016633,,105.02621949999593,105.03833520016633,106.03495969995856,106.03495969995856,106.718811100116,up,0,0.6691915998235345,None,0,188245,001,2023-09-14_09h40.22.250,signal detection final- tutorial 2,2023.2.1,59.96861242661847,2023-09-14 09h40.30.778396 +0530,
65,0,65,0,106.73694360000081,,106.72143270005472,106.73694360000081,107.73360259993933,107.73360259993933,108.26792470016517,down,1,0.5282252000179142,None,-1,188245,001,2023-09-14_09h40.22.250,signal detection final- tutorial 2,2023.2.1,59.96861242661847,2023-09-14 09h40.30.778396 +0530,
66,0,66,0,108.2855573000852,,108.27163169998676,108.2855573000852,109.28222439996898,109.28222439996898,109.85048170015216,down,1,0.5570953001733869,None,1,188245,001,2023-09-14_09h40.22.250,signal detection final- tutorial 2,2023.2.1,59.96861242661847,2023-09-14 09h40.30.778396 +0530,
67,0,67,0,109.86758840014227,,109.85531030013226,109.86758840014227,110.86430020001717,110.86430020001717,111.49745519994758,down,0,0.6231164000928402,None,0,188245,001,2023-09-14_09h40.22.250,signal detection final- tutorial 2,2023.2.1,59.96861242661847,2023-09-14 09h40.30.778396 +0530,
68,0,68,0,111.51638110005297,,111.49919420015067,111.51638110005297,112.49895870010369,112.51272820006125,113.19718659995124,up,1,0.6860811000224203,None,0,188245,001,2023-09-14_09h40.22.250,signal detection final- tutorial 2,2023.2.1,59.96861242661847,2023-09-14 09h40.30.778396 +0530,
69,0,69,0,113.21481769997627,,113.20154680009,113.21481769997627,114.21116740000434,114.21116740000434,114.69608939997852,up,0,0.4765866999514401,None,4,188245,001,2023-09-14_09h40.22.250,signal detection final- tutorial 2,2023.2.1,59.96861242661847,2023-09-14 09h40.30.778396 +0530,
70,0,70,0,114.71354799997061,,114.70099909999408,114.71354799997061,115.70986560010351,115.70986560010351,116.27760570007376,down,0,0.5541335998568684,None,0,188245,001,2023-09-14_09h40.22.250,signal detection final- tutorial 2,2023.2.1,59.96861242661847,2023-09-14 09h40.30.778396 +0530,
71,0,71,0,116.29540219996125,,116.28109590010718,116.29540219996125,117.29200519993901,117.29200519993901,118.60881420015357,down,0,1.306453799828887,None,0,188245,001,2023-09-14_09h40.22.250,signal detection final- tutorial 2,2023.2.1,59.96861242661847,2023-09-14 09h40.30.778396 +0530,
72,0,72,0,118.6266282000579,,118.6133290999569,118.6266282000579,119.62313630012795,119.62313630012795,120.2577401001472,down,1,0.624496900010854,None,-5,188245,001,2023-09-14_09h40.22.250,signal detection final- tutorial 2,2023.2.1,59.96861242661847,2023-09-14 09h40.30.778396 +0530,
73,0,73,0,120.27518370002508,,120.26308170007542,120.27518370002508,121.27156140003353,121.27156140003353,121.87176649994217,down,1,0.5949423001147807,None,2,188245,001,2023-09-14_09h40.22.250,signal detection final- tutorial 2,2023.2.1,59.96861242661847,2023-09-14 09h40.30.778396 +0530,
74,0,74,0,121.89058759994805,,121.8747326999437,121.89058759994805,122.87313370010816,122.8870378001593,123.62163399998099,up,1,0.741719099925831,None,0,188245,001,2023-09-14_09h40.22.250,signal detection final- tutorial 2,2023.2.1,59.96861242661847,2023-09-14 09h40.30.778396 +0530,
75,0,75,0,123.6390835000202,,123.62714250013232,123.6390835000202,124.63540740008466,124.63540740008466,125.18684200011194,up,0,0.5430490002036095,None,0,188245,001,2023-09-14_09h40.22.250,signal detection final- tutorial 2,2023.2.1,59.96861242661847,2023-09-14 09h40.30.778396 +0530,
76,0,76,0,125.20456400001422,,125.19131759996526,125.20456400001422,126.20076530007645,126.20076530007645,126.65196119993925,up,1,0.4351957000326365,None,0,188245,001,2023-09-14_09h40.22.250,signal detection final- tutorial 2,2023.2.1,59.96861242661847,2023-09-14 09h40.30.778396 +0530,
77,0,77,0,126.66962890001014,,126.65665160003118,126.66962890001014,127.66611540014856,127.66611540014856,128.3507195999846,up,1,0.6681788000278175,None,0,188245,001,2023-09-14_09h40.22.250,signal detection final- tutorial 2,2023.2.1,59.96861242661847,2023-09-14 09h40.30.778396 +0530,
78,0,78,0,128.36822529998608,,128.35599129996262,128.36822529998608,129.36455080006272,129.36455080006272,130.1153806000948,up,0,0.7434088001027703,None,0,188245,001,2023-09-14_09h40.22.250,signal detection final- tutorial 2,2023.2.1,59.96861242661847,2023-09-14 09h40.30.778396 +0530,
79,0,79,0,130.13340870011598,,130.11865489999764,130.13340870011598,131.1299612999428,131.1299612999428,131.66373510006815,up,1,0.5206216999795288,None,0,188245,001,2023-09-14_09h40.22.250,signal detection final- tutorial 2,2023.2.1,59.96861242661847,2023-09-14 09h40.30.778396 +0530,
80,0,80,0,131.68199840001762,,131.66789370006882,131.68199840001762,132.67846329999156,132.67846329999156,133.27910000015981,down,1,0.5970542000140995,None,-3,188245,001,2023-09-14_09h40.22.250,signal detection final- tutorial 2,2023.2.1,59.96861242661847,2023-09-14 09h40.30.778396 +0530,
81,0,81,0,133.29722420009784,,133.28276890004054,133.29722420009784,134.2939677000977,134.2939677000977,134.9949382999912,up,1,0.6854313998483121,None,0,188245,001,2023-09-14_09h40.22.250,signal detection final- tutorial 2,2023.2.1,59.96861242661847,2023-09-14 09h40.30.778396 +0530,
82,0,82,0,135.01227830001153,,135.0003711001482,135.01227830001153,136.0087862999644,136.0087862999644,136.69240089994855,up,1,0.6714141999837011,None,0,188245,001,2023-09-14_09h40.22.250,signal detection final- tutorial 2,2023.2.1,59.96861242661847,2023-09-14 09h40.30.778396 +0530,
83,0,83,0,136.71124320011586,,136.6944331000559,136.71124320011586,137.69380900007673,137.7073367999401,138.2911662000697,up,0,0.5945939999073744,None,1,188245,001,2023-09-14_09h40.22.250,signal detection final- tutorial 2,2023.2.1,59.96861242661847,2023-09-14 09h40.30.778396 +0530,
84,0,84,0,138.30963240005076,,138.29373440006748,138.30963240005076,139.29225840000436,139.3060717000626,139.97379810013808,up,0,0.6776811999734491,None,0,188245,001,2023-09-14_09h40.22.250,signal detection final- tutorial 2,2023.2.1,59.96861242661847,2023-09-14 09h40.30.778396 +0530,
85,0,85,0,139.99147609993815,,139.9790982999839,139.99147609993815,140.98808240005746,140.98808240005746,141.7723064001184,up,1,0.774999599903822,None,0,188245,001,2023-09-14_09h40.22.250,signal detection final- tutorial 2,2023.2.1,59.96861242661847,2023-09-14 09h40.30.778396 +0530,
86,0,86,0,141.7901810000185,,141.77671360014938,141.7901810000185,142.78650250006467,142.78650250006467,143.38779660011642,up,1,0.5868030001875013,None,0,188245,001,2023-09-14_09h40.22.250,signal detection final- tutorial 2,2023.2.1,59.96861242661847,2023-09-14 09h40.30.778396 +0530,
87,0,87,0,143.40524210012518,,143.39243440004066,143.40524210012518,144.40398760000244,144.41800220008008,145.01912670000456,up,1,0.6025521999690682,None,0,188245,001,2023-09-14_09h40.22.250,signal detection final- tutorial 2,2023.2.1,59.96861242661847,2023-09-14 09h40.30.778396 +0530,
88,0,88,0,145.03706760006025,,145.02341479994357,145.03706760006025,146.03389690001495,146.03389690001495,146.63544230000116,down,1,0.5952153999824077,None,-3,188245,001,2023-09-14_09h40.22.250,signal detection final- tutorial 2,2023.2.1,59.96861242661847,2023-09-14 09h40.30.778396 +0530,
89,0,89,0,146.65258070011623,,146.63954090001062,146.65258070011623,147.64885760005563,147.64885760005563,148.41633530007675,up,1,0.7503134000580758,None,0,188245,001,2023-09-14_09h40.22.250,signal detection final- tutorial 2,2023.2.1,59.96861242661847,2023-09-14 09h40.30.778396 +0530,
90,0,90,0,148.43430409999564,,148.42123320000246,148.43430409999564,149.4333420000039,149.4471037001349,150.09824070008472,up,0,0.657434199936688,None,0,188245,001,2023-09-14_09h40.22.250,signal detection final- tutorial 2,2023.2.1,59.96861242661847,2023-09-14 09h40.30.778396 +0530,
91,0,91,0,150.11625339998864,,150.10280789993703,150.11625339998864,151.115349000087,151.12920320010744,151.66348440013826,up,0,0.541468100156635,None,1,188245,001,2023-09-14_09h40.22.250,signal detection final- tutorial 2,2023.2.1,59.96861242661847,2023-09-14 09h40.30.778396 +0530,
92,0,92,0,151.68115280009806,,151.66759790014476,151.68115280009806,152.67781549994834,152.67781549994834,153.47859050007537,down,1,0.7933938000351191,None,2,188245,001,2023-09-14_09h40.22.250,signal detection final- tutorial 2,2023.2.1,59.96861242661847,2023-09-14 09h40.30.778396 +0530,
93,0,93,0,153.49623739998788,,153.48327630013227,153.49623739998788,154.49281299998984,154.49281299998984,154.99412690009922,down,1,0.4988598001655191,None,2,188245,001,2023-09-14_09h40.22.250,signal detection final- tutorial 2,2023.2.1,59.96861242661847,2023-09-14 09h40.30.778396 +0530,
94,0,94,0,155.0121097001247,,154.9981800999958,155.0121097001247,156.01108790002763,156.02491679997183,156.55981400003657,down,1,0.5456003998406231,None,-2,188245,001,2023-09-14_09h40.22.250,signal detection final- tutorial 2,2023.2.1,59.96861242661847,2023-09-14 09h40.30.778396 +0530,
95,0,95,0,156.57760640000924,,156.56432440015487,156.57760640000924,157.57635490014218,157.59002430015244,158.30834889994003,up,0,0.729825200047344,None,2,188245,001,2023-09-14_09h40.22.250,signal detection final- tutorial 2,2023.2.1,59.96861242661847,2023-09-14 09h40.30.778396 +0530,
96,0,96,0,158.32552800001577,,158.31334160012193,158.32552800001577,159.3219658001326,159.3219658001326,159.82307890010998,down,1,0.4860579001251608,None,-4,188245,001,2023-09-14_09h40.22.250,signal detection final- tutorial 2,2023.2.1,59.96861242661847,2023-09-14 09h40.30.778396 +0530,
97,0,97,0,159.8410126999952,,159.8277517000679,159.8410126999952,160.83738490007818,160.83738490007818,161.60546380002052,up,1,0.7644944998901337,None,0,188245,001,2023-09-14_09h40.22.250,signal detection final- tutorial 2,2023.2.1,59.96861242661847,2023-09-14 09h40.30.778396 +0530,
98,0,98,0,161.62292969995178,,161.6096594000701,161.62292969995178,162.6221600000281,162.63555150013417,163.48666139994748,up,1,0.8613809999078512,None,0,188245,001,2023-09-14_09h40.22.250,signal detection final- tutorial 2,2023.2.1,59.96861242661847,2023-09-14 09h40.30.778396 +0530,
99,0,99,0,163.50445180013776,,163.491348200012,163.50445180013776,164.500794300111,164.500794300111,164.9184554000385,down,1,0.41328320000320673,None,4,188245,001,2023-09-14_09h40.22.250,signal detection final- tutorial 2,2023.2.1,59.96861242661847,2023-09-14 09h40.30.778396 +0530,
100,0,100,0,164.93633510009386,,164.9226898001507,164.93633510009386,165.93270960007794,165.93270960007794,166.81591400015168,down,1,0.8762730001471937,None,-2,188245,001,2023-09-14_09h40.22.250,signal detection final- tutorial 2,2023.2.1,59.96861242661847,2023-09-14 09h40.30.778396 +0530,
101,0,101,0,166.8343901000917,,166.8191987001337,166.8343901000917,167.81752429995686,167.8312595000025,168.63220440014265,up,1,0.8079794000368565,None,0,188245,001,2023-09-14_09h40.22.250,signal detection final- tutorial 2,2023.2.1,59.96861242661847,2023-09-14 09h40.30.778396 +0530,
102,0,102,0,168.65049250004813,,168.63648160011508,168.65049250004813,169.64912499999627,169.66309210006148,170.3136837000493,up,1,0.6474242999684066,None,0,188245,001,2023-09-14_09h40.22.250,signal detection final- tutorial 2,2023.2.1,59.96861242661847,2023-09-14 09h40.30.778396 +0530,
103,0,103,0,170.3315715000499,,170.3173219000455,170.3315715000499,171.32780400011688,171.32780400011688,172.2632732000202,down,1,0.9329093000851572,None,-2,188245,001,2023-09-14_09h40.22.250,signal detection final- tutorial 2,2023.2.1,59.96861242661847,2023-09-14 09h40.30.778396 +0530,
104,0,104,0,172.27961060008965,,172.26795920007862,172.27961060008965,173.276574900141,173.276574900141,173.69395400001667,up,0,0.4023812999948859,None,2,188245,001,2023-09-14_09h40.22.250,signal detection final- tutorial 2,2023.2.1,59.96861242661847,2023-09-14 09h40.30.778396 +0530,
105,0,105,0,173.7121794000268,,173.69816619995981,173.7121794000268,174.70847019995563,174.70847019995563,175.34333340008743,down,1,0.630311599932611,None,-5,188245,001,2023-09-14_09h40.22.250,signal detection final- tutorial 2,2023.2.1,59.96861242661847,2023-09-14 09h40.30.778396 +0530,
106,0,106,0,175.36112749995664,,175.34800420003012,175.36112749995664,176.36002629995346,176.37368930014782,177.17432989994995,up,0,0.7988495999015868,None,1,188245,001,2023-09-14_09h40.22.250,signal detection final- tutorial 2,2023.2.1,59.96861242661847,2023-09-14 09h40.30.778396 +0530,
107,0,107,0,177.1926381001249,,177.17949400004,177.1926381001249,178.19215190014802,178.2058723999653,179.07309089996852,up,1,0.8632910999003798,None,0,188245,001,2023-09-14_09h40.22.250,signal detection final- tutorial 2,2023.2.1,59.96861242661847,2023-09-14 09h40.30.778396 +0530,
108,0,108,0,179.09119469998404,,179.07775470009074,179.09119469998404,180.09039760008454,180.10379400011152,180.7211575000547,down,1,0.6229222000110894,None,3,188245,001,2023-09-14_09h40.22.250,signal detection final- tutorial 2,2023.2.1,59.96861242661847,2023-09-14 09h40.30.778396 +0530,
109,0,109,0,180.73971610004082,,180.72555940016173,180.73971610004082,181.7357926000841,181.7357926000841,182.4866125001572,down,1,0.7373977999668568,None,-2,188245,001,2023-09-14_09h40.22.250,signal detection final- tutorial 2,2023.2.1,59.96861242661847,2023-09-14 09h40.30.778396 +0530,
110,0,110,0,182.50449660001323,,182.49141689995304,182.50449660001323,183.50112630007789,183.50112630007789,184.38508399995044,up,1,0.8773630999494344,None,0,188245,001,2023-09-14_09h40.22.250,signal detection final- tutorial 2,2023.2.1,59.96861242661847,2023-09-14 09h40.30.778396 +0530,
111,0,111,0,184.40320160007104,,184.39209710014984,184.40320160007104,185.40225380007178,185.4159516999498,187.59867580002174,down,0,2.1873256999533623,None,0,188245,001,2023-09-14_09h40.22.250,signal detection final- tutorial 2,2023.2.1,59.96861242661847,2023-09-14 09h40.30.778396 +0530,
112,0,112,0,187.61647740006447,,187.60393019998446,187.61647740006447,188.61291240015998,188.61291240015998,189.5469721001573,down,0,0.9314033000264317,None,0,188245,001,2023-09-14_09h40.22.250,signal detection final- tutorial 2,2023.2.1,59.96861242661847,2023-09-14 09h40.30.778396 +0530,
113,0,113,0,189.5647375001572,,189.55141690000892,189.5647375001572,190.5618086999748,190.5618086999748,191.34539000014775,down,0,0.7807472001295537,None,0,188245,001,2023-09-14_09h40.22.250,signal detection final- tutorial 2,2023.2.1,59.96861242661847,2023-09-14 09h40.30.778396 +0530,
114,0,114,0,191.3632627001498,,191.3497041000519,191.3632627001498,192.35981440008618,192.35981440008618,193.01078730006702,up,1,0.642106199869886,None,0,188245,001,2023-09-14_09h40.22.250,signal detection final- tutorial 2,2023.2.1,59.96861242661847,2023-09-14 09h40.30.778396 +0530,
115,0,115,0,193.02886359998956,,193.01543490006588,193.02886359998956,194.0249570000451,194.0249570000451,194.64252420002595,up,0,0.603204800048843,None,0,188245,001,2023-09-14_09h40.22.250,signal detection final- tutorial 2,2023.2.1,59.96861242661847,2023-09-14 09h40.30.778396 +0530,
116,0,116,0,194.6604119001422,,194.64650190016255,194.6604119001422,195.6566463999916,195.6566463999916,196.15786120016128,up,0,0.4897589001338929,None,0,188245,001,2023-09-14_09h40.22.250,signal detection final- tutorial 2,2023.2.1,59.96861242661847,2023-09-14 09h40.30.778396 +0530,
117,0,117,0,196.17624730011448,,196.16296169999987,196.17624730011448,197.17507580015808,197.18900560005568,197.70691170007922,up,1,0.5156421000137925,None,0,188245,001,2023-09-14_09h40.22.250,signal detection final- tutorial 2,2023.2.1,59.96861242661847,2023-09-14 09h40.30.778396 +0530,
118,0,118,0,197.72451530001126,,197.71171920001507,197.72451530001126,198.72094479994848,198.72094479994848,199.27195030008443,up,0,0.5495633000973612,None,0,188245,001,2023-09-14_09h40.22.250,signal detection final- tutorial 2,2023.2.1,59.96861242661847,2023-09-14 09h40.30.778396 +0530,
119,0,119,0,199.28984770015813,,199.27683120011352,199.28984770015813,200.2862688000314,200.2862688000314,200.838260400109,up,1,0.5500280000269413,None,0,188245,001,2023-09-14_09h40.22.250,signal detection final- tutorial 2,2023.2.1,59.96861242661847,2023-09-14 09h40.30.778396 +0530,
120,0,120,0,200.8551225999836,,200.843204600038,200.8551225999836,201.85168240009807,201.85168240009807,202.41895520011894,up,1,0.5522950999438763,None,0,188245,001,2023-09-14_09h40.22.250,signal detection final- tutorial 2,2023.2.1,59.96861242661847,2023-09-14 09h40.30.778396 +0530,
121,0,121,0,202.43709679995663,,202.42295300005935,202.43709679995663,203.4337379001081,203.4337379001081,203.91907360008918,up,1,0.4833676000125706,None,0,188245,001,2023-09-14_09h40.22.250,signal detection final- tutorial 2,2023.2.1,59.96861242661847,2023-09-14 09h40.30.778396 +0530,
122,0,122,0,203.93615550012328,,203.9237983999774,203.93615550012328,204.93521400005557,204.94871770008467,205.51633549993858,up,0,0.5742130000144243,None,-1,188245,001,2023-09-14_09h40.22.250,signal detection final- tutorial 2,2023.2.1,59.96861242661847,2023-09-14 09h40.30.778396 +0530,
123,0,123,0,205.53420360013843,,205.52117880014703,205.53420360013843,206.5309838000685,206.5309838000685,207.13200960005634,up,1,0.5949726998806,None,0,188245,001,2023-09-14_09h40.22.250,signal detection final- tutorial 2,2023.2.1,59.96861242661847,2023-09-14 09h40.30.778396 +0530,
124,0,124,0,207.14986190013587,,207.13562810001895,207.14986190013587,208.14580449997447,208.14580449997447,209.34545180015266,up,1,1.1899583998601884,None,0,188245,001,2023-09-14_09h40.22.250,signal detection final- tutorial 2,2023.2.1,59.96861242661847,2023-09-14 09h40.30.778396 +0530,
125,0,125,0,209.36413699993864,,209.34784039994702,209.36413699993864,210.34695210005157,210.36087710014544,210.9948022000026,down,1,0.6337790000252426,None,-5,188245,001,2023-09-14_09h40.22.250,signal detection final- tutorial 2,2023.2.1,59.96861242661847,2023-09-14 09h40.30.778396 +0530,
126,0,126,0,211.0127783000935,,210.99863800010644,211.0127783000935,212.0094254000578,212.0094254000578,212.64367790007964,up,1,0.6241925999056548,None,0,188245,001,2023-09-14_09h40.22.250,signal detection final- tutorial 2,2023.2.1,59.96861242661847,2023-09-14 09h40.30.778396 +0530,
127,0,127,0,212.66145749995485,,212.64944309997372,212.66145749995485,213.65795519994572,213.65795519994572,214.4419114999473,down,1,0.7811169000342488,None,-2,188245,001,2023-09-14_09h40.22.250,signal detection final- tutorial 2,2023.2.1,59.96861242661847,2023-09-14 09h40.30.778396 +0530,
128,0,128,0,214.45991050009616,,214.44587770011276,214.45991050009616,215.456336800009,215.456336800009,216.04094250011258,up,1,0.5701997999567538,None,0,188245,001,2023-09-14_09h40.22.250,signal detection final- tutorial 2,2023.2.1,59.96861242661847,2023-09-14 09h40.30.778396 +0530,
129,0,129,0,216.05885240016505,,216.04578329995275,216.05885240016505,217.0579899000004,217.07160579995252,217.6223963999655,up,1,0.5486699000466615,None,0,188245,001,2023-09-14_09h40.22.250,signal detection final- tutorial 2,2023.2.1,59.96861242661847,2023-09-14 09h40.30.778396 +0530,
130,0,130,0,217.6403503001202,,217.62676110002212,217.6403503001202,218.636690299958,218.636690299958,219.2541398999747,down,1,0.6082313999067992,None,-3,188245,001,2023-09-14_09h40.22.250,signal detection final- tutorial 2,2023.2.1,59.96861242661847,2023-09-14 09h40.30.778396 +0530,
131,0,131,0,219.27234819997102,,219.2573679999914,219.27234819997102,220.2685865999665,220.2685865999665,220.91955829993822,up,1,0.6402575001120567,None,0,188245,001,2023-09-14_09h40.22.250,signal detection final- tutorial 2,2023.2.1,59.96861242661847,2023-09-14 09h40.30.778396 +0530,
132,0,132,0,220.93791600014083,,220.9228874000255,220.93791600014083,221.93685399997048,221.95080200000666,223.08478939998895,up,1,1.1407661999110132,None,0,188245,001,2023-09-14_09h40.22.250,signal detection final- tutorial 2,2023.2.1,59.96861242661847,2023-09-14 09h40.30.778396 +0530,
133,0,133,0,223.1022412001621,,223.08905609999783,223.1022412001621,224.09854659996927,224.09854659996927,224.61636340012774,up,0,0.503355500055477,None,0,188245,001,2023-09-14_09h40.22.250,signal detection final- tutorial 2,2023.2.1,59.96861242661847,2023-09-14 09h40.30.778396 +0530,
134,0,134,0,224.63432960002683,,224.62102740001865,224.63432960002683,225.6308232001029,225.6308232001029,226.24835540005006,up,1,0.6042247000150383,None,0,188245,001,2023-09-14_09h40.22.250,signal detection final- tutorial 2,2023.2.1,59.96861242661847,2023-09-14 09h40.30.778396 +0530,
135,0,135,0,226.266184899956,,226.25301040010527,226.266184899956,227.26283770008013,227.26283770008013,227.93060260009952,down,0,0.6657348000444472,None,0,188245,001,2023-09-14_09h40.22.250,signal detection final- tutorial 2,2023.2.1,59.96861242661847,2023-09-14 09h40.30.778396 +0530,
136,0,136,0,227.94771530013531,,227.9356530001387,227.94771530013531,228.94479910004884,228.94479910004884,229.79690650012344,up,1,0.8489753999747336,None,0,188245,001,2023-09-14_09h40.22.250,signal detection final- tutorial 2,2023.2.1,59.96861242661847,2023-09-14 09h40.30.778396 +0530,
137,0,137,0,229.81357410014607,,229.80157719994895,229.81357410014607,230.8097248999402,230.8097248999402,231.62705600005575,down,0,0.8142963999416679,None,0,188245,001,2023-09-14_09h40.22.250,signal detection final- tutorial 2,2023.2.1,59.96861242661847,2023-09-14 09h40.30.778396 +0530,
138,0,138,0,231.64500560006127,,231.6312247000169,231.64500560006127,232.64164300006814,232.64164300006814,233.54185230005533,up,1,0.8870959000196308,None,0,188245,001,2023-09-14_09h40.22.250,signal detection final- tutorial 2,2023.2.1,59.96861242661847,2023-09-14 09h40.30.778396 +0530,
139,0,139,0,233.56013250001706,,233.54541200003587,233.56013250001706,234.55636409996077,234.55636409996077,235.2068303001579,up,1,0.6443481000605971,None,0,188245,001,2023-09-14_09h40.22.250,signal detection final- tutorial 2,2023.2.1,59.96861242661847,2023-09-14 09h40.30.778396 +0530,
140,0,140,0,235.2251804000698,,235.20856670010835,235.2251804000698,236.2082178001292,236.22141300002113,236.78972920007072,up,0,0.5772637999616563,None,-1,188245,001,2023-09-14_09h40.22.250,signal detection final- tutorial 2,2023.2.1,59.96861242661847,2023-09-14 09h40.30.778396 +0530,
141,0,141,0,236.8071713000536,,236.79434729996137,236.8071713000536,237.803688300075,237.803688300075,238.43832030007616,up,1,0.6270758998580277,None,0,188245,001,2023-09-14_09h40.22.250,signal detection final- tutorial 2,2023.2.1,59.96861242661847,2023-09-14 09h40.30.778396 +0530,
142,0,142,0,238.45569019997492,,238.44292120006867,238.45569019997492,239.45216660015285,239.45216660015285,240.56936240009964,down,0,1.1122688001487404,None,0,188245,001,2023-09-14_09h40.22.250,signal detection final- tutorial 2,2023.2.1,59.96861242661847,2023-09-14 09h40.30.778396 +0530,
143,0,143,0,240.5872319000773,,240.57392500014976,240.5872319000773,241.5836012000218,241.5836012000218,242.23427759995684,up,1,0.6445285000372678,None,0,188245,001,2023-09-14_09h40.22.250,signal detection final- tutorial 2,2023.2.1,59.96861242661847,2023-09-14 09h40.30.778396 +0530,
144,0,144,0,242.25237990007736,,242.23864360013977,242.25237990007736,243.24866920011118,243.24866920011118,243.8337873001583,up,1,0.567280399845913,None,0,188245,001,2023-09-14_09h40.22.250,signal detection final- tutorial 2,2023.2.1,59.96861242661847,2023-09-14 09h40.30.778396 +0530,
145,0,145,0,243.85139760002494,,243.83805779996328,243.85139760002494,244.85039909998886,244.86405010009184,245.2985068000853,up,1,0.44364920002408326,None,0,188245,001,2023-09-14_09h40.22.250,signal detection final- tutorial 2,2023.2.1,59.96861242661847,2023-09-14 09h40.30.778396 +0530,
146,0,146,0,245.31629210012034,,245.30290230014361,245.31629210012034,246.31287949997932,246.31287949997932,246.71389280003496,up,0,0.38785629998892546,None,-1,188245,001,2023-09-14_09h40.22.250,signal detection final- tutorial 2,2023.2.1,59.96861242661847,2023-09-14 09h40.30.778396 +0530,
147,0,147,0,246.7319746001158,,246.71982650016434,246.7319746001158,247.72830360010266,247.72830360010266,248.57944869995117,down,1,0.8495361001696438,None,-2,188245,001,2023-09-14_09h40.22.250,signal detection final- tutorial 2,2023.2.1,59.96861242661847,2023-09-14 09h40.30.778396 +0530,
148,0,148,0,248.59714310010895,,248.58452000003308,248.59714310010895,249.59637770010158,249.60999090014957,250.2774656000547,up,1,0.664832100039348,None,0,188245,001,2023-09-14_09h40.22.250,signal detection final- tutorial 2,2023.2.1,59.96861242661847,2023-09-14 09h40.30.778396 +0530,
149,0,149,0,250.29575960012153,,250.28161050006747,250.29575960012153,251.29371180012822,251.30780240008608,252.55864670011215,up,1,1.2621903999242932,None,0,188245,001,2023-09-14_09h40.22.250,signal detection final- tutorial 2,2023.2.1,59.96861242661847,2023-09-14 09h40.30.778396 +0530,
150,0,150,0,252.57701959996484,,252.5625414000824,252.57701959996484,253.5771840000525,253.5895219000522,254.25790040008724,up,1,0.6781490999273956,None,0,188245,001,2023-09-14_09h40.22.250,signal detection final- tutorial 2,2023.2.1,59.96861242661847,2023-09-14 09h40.30.778396 +0530,
151,0,151,0,254.27549430006184,,254.26221280009486,254.27549430006184,255.27458039997146,255.288108299952,255.89032889995724,up,1,0.6137526999227703,None,0,188245,001,2023-09-14_09h40.22.250,signal detection final- tutorial 2,2023.2.1,59.96861242661847,2023-09-14 09h40.30.778396 +0530,
152,0,152,0,255.90729709994048,,255.89545710012317,255.90729709994048,256.90354229998775,256.90354229998775,257.58767500007525,down,1,0.6787988001015037,None,-3,188245,001,2023-09-14_09h40.22.250,signal detection final- tutorial 2,2023.2.1,59.96861242661847,2023-09-14 09h40.30.778396 +0530,
153,0,153,0,257.60556049994193,,257.5917603999842,257.60556049994193,258.60201620007865,258.60201620007865,259.3368915000465,up,1,0.719283499987796,None,0,188245,001,2023-09-14_09h40.22.250,signal detection final- tutorial 2,2023.2.1,59.96861242661847,2023-09-14 09h40.30.778396 +0530,
154,0,154,0,259.3543430001009,,259.34178430004977,259.3543430001009,260.35062939999625,260.35062939999625,261.03535200003535,up,1,0.673677499871701,None,0,188245,001,2023-09-14_09h40.22.250,signal detection final- tutorial 2,2023.2.1,59.96861242661847,2023-09-14 09h40.30.778396 +0530,
155,0,155,0,261.0526330000721,,261.04019640013576,261.0526330000721,262.0489161000587,262.0489161000587,262.6331901999656,up,1,0.5729022000450641,None,0,188245,001,2023-09-14_09h40.22.250,signal detection final- tutorial 2,2023.2.1,59.96861242661847,2023-09-14 09h40.30.778396 +0530,
156,0,156,0,262.6516611999832,,262.6368647001218,262.6516611999832,263.6502098001074,263.66418040008284,264.29832990001887,up,0,0.6390434000641108,None,-1,188245,001,2023-09-14_09h40.22.250,signal detection final- tutorial 2,2023.2.1,59.96861242661847,2023-09-14 09h40.30.778396 +0530,
157,0,157,0,264.31673990003765,,264.3027491001412,264.31673990003765,265.3157033000607,265.32973899994977,265.9643085000571,up,0,0.6397671999875456,None,2,188245,001,2023-09-14_09h40.22.250,signal detection final- tutorial 2,2023.2.1,59.96861242661847,2023-09-14 09h40.30.778396 +0530,
158,0,158,0,265.98202800005674,,265.9686171000358,265.98202800005674,266.9814063999802,266.99480079999194,267.57904980005696,up,1,0.5837318999692798,None,0,188245,001,2023-09-14_09h40.22.250,signal detection final- tutorial 2,2023.2.1,59.96861242661847,2023-09-14 09h40.30.778396 +0530,
159,0,159,0,267.5966475000605,,267.58408800000325,267.5966475000605,268.59339180006646,268.59339180006646,269.1621518000029,up,1,0.5668168000411242,None,0,188245,001,2023-09-14_09h40.22.250,signal detection final- tutorial 2,2023.2.1,59.96861242661847,2023-09-14 09h40.30.778396 +0530,
160,0,160,0,269.1791632999666,,269.16699480009265,269.1791632999666,270.17545820004307,270.17545820004307,270.8262074000668,up,0,0.6432637998368591,None,-1,188245,001,2023-09-14_09h40.22.250,signal detection final- tutorial 2,2023.2.1,59.96861242661847,2023-09-14 09h40.30.778396 +0530,
161,0,161,0,270.8440016999375,,270.8302879999392,270.8440016999375,271.8405989999883,271.8405989999883,272.55863970005885,up,1,0.7093011001124978,None,0,188245,001,2023-09-14_09h40.22.250,signal detection final- tutorial 2,2023.2.1,59.96861242661847,2023-09-14 09h40.30.778396 +0530,
162,0,162,0,272.57668410008773,,272.56199069996364,272.57668410008773,273.5752580000553,273.58882139995694,274.2071698999498,up,1,0.6271834000945091,None,0,188245,001,2023-09-14_09h40.22.250,signal detection final- tutorial 2,2023.2.1,59.96861242661847,2023-09-14 09h40.30.778396 +0530,
163,0,163,0,274.22449799999595,,274.21152160014026,274.22449799999595,275.22093120007776,275.22093120007776,275.7383121000603,up,1,0.5040286998264492,None,0,188245,001,2023-09-14_09h40.22.250,signal detection final- tutorial 2,2023.2.1,59.96861242661847,2023-09-14 09h40.30.778396 +0530,
164,0,164,0,275.7565850999672,,275.7423042000737,275.7565850999672,276.75306549994275,276.75306549994275,277.47077390016057,up,1,0.7113743000663817,None,0,188245,001,2023-09-14_09h40.22.250,signal detection final- tutorial 2,2023.2.1,59.96861242661847,2023-09-14 09h40.30.778396 +0530,
165,0,165,0,277.48819419997744,,277.4752081001643,277.48819419997744,278.48442610003985,278.48442610003985,278.90265200007707,up,1,0.4124137000180781,None,0,188245,001,2023-09-14_09h40.22.250,signal detection final- tutorial 2,2023.2.1,59.96861242661847,2023-09-14 09h40.30.778396 +0530,
166,0,166,0,278.92038460006006,,278.9066894000862,278.92038460006006,279.91709230002016,279.91709230002016,280.50104200001806,down,1,0.5742245998699218,None,0,188245,001,2023-09-14_09h40.22.250,signal detection final- tutorial 2,2023.2.1,59.96861242661847,2023-09-14 09h40.30.778396 +0530,
167,0,167,0,280.51923119998537,,280.506663300097,280.51923119998537,281.5154178000521,281.5154178000521,282.2668459000997,up,1,0.7461539001669735,None,0,188245,001,2023-09-14_09h40.22.250,signal detection final- tutorial 2,2023.2.1,59.96861242661847,2023-09-14 09h40.30.778396 +0530,
168,0,168,0,282.2844316000119,,282.2721410000231,282.2844316000119,283.2806283000391,283.2806283000391,283.91539250011556,down,1,0.6221501000691205,None,-4,188245,001,2023-09-14_09h40.22.250,signal detection final- tutorial 2,2023.2.1,59.96861242661847,2023-09-14 09h40.30.778396 +0530,
169,0,169,0,283.9326146999374,,283.9202847999986,283.9326146999374,284.9292242999654,284.9292242999654,285.6801952000242,up,1,0.7407697001472116,None,0,188245,001,2023-09-14_09h40.22.250,signal detection final- tutorial 2,2023.2.1,59.96861242661847,2023-09-14 09h40.30.778396 +0530,
170,0,170,0,285.69791000010446,,285.6848228001036,285.69791000010446,286.6972328000702,286.710706199985,287.26183170010336,down,1,0.5620059000793844,None,3,188245,001,2023-09-14_09h40.22.250,signal detection final- tutorial 2,2023.2.1,59.96861242661847,2023-09-14 09h40.30.778396 +0530,
171,0,171,0,287.2798748000059,,287.265587199945,287.2798748000059,288.27618580008857,288.27618580008857,288.86067660013214,up,1,0.5815484002232552,None,0,188245,001,2023-09-14_09h40.22.250,signal detection final- tutorial 2,2023.2.1,59.96861242661847,2023-09-14 09h40.30.778396 +0530,
172,0,172,0,288.87865830003284,,288.8661493000109,288.87865830003284,289.8749907000456,289.8749907000456,290.62528240005486,up,0,0.7469526999630034,None,-1,188245,001,2023-09-14_09h40.22.250,signal detection final- tutorial 2,2023.2.1,59.96861242661847,2023-09-14 09h40.30.778396 +0530,
173,0,173,0,290.6436940000858,,290.62931620003656,290.6436940000858,291.640069300076,291.640069300076,292.2078786001075,down,0,0.5576918001752347,None,0,188245,001,2023-09-14_09h40.22.250,signal detection final- tutorial 2,2023.2.1,59.96861242661847,2023-09-14 09h40.30.778396 +0530,
174,0,174,0,292.22576369997114,,292.21276040002704,292.22576369997114,293.2220505999867,293.2220505999867,293.9720239001326,up,0,0.7463483000174165,None,0,188245,001,2023-09-14_09h40.22.250,signal detection final- tutorial 2,2023.2.1,59.96861242661847,2023-09-14 09h40.30.778396 +0530,
175,0,175,0,293.9906250999775,,293.9747083000839,293.9906250999775,294.98702220013365,294.98702220013365,295.5045878000092,up,0,0.5053483000956476,None,0,188245,001,2023-09-14_09h40.22.250,signal detection final- tutorial 2,2023.2.1,59.96861242661847,2023-09-14 09h40.30.778396 +0530,
176,0,176,0,295.5227024999913,,295.50914510013536,295.5227024999913,296.5188855000306,296.5188855000306,297.2367186001502,down,1,0.7026579999364913,None,-3,188245,001,2023-09-14_09h40.22.250,signal detection final- tutorial 2,2023.2.1,59.96861242661847,2023-09-14 09h40.30.778396 +0530,
177,0,177,0,297.25445420015603,,297.2420147000812,297.25445420015603,298.2510228001047,298.2510228001047,299.08458560006693,up,1,0.8280152999795973,None,0,188245,001,2023-09-14_09h40.22.250,signal detection final- tutorial 2,2023.2.1,59.96861242661847,2023-09-14 09h40.30.778396 +0530,
178,0,178,0,299.10289050010033,,299.0882339000236,299.10289050010033,300.09941989998333,300.09941989998333,300.7169211001601,down,1,0.6099380999803543,None,-5,188245,001,2023-09-14_09h40.22.250,signal detection final- tutorial 2,2023.2.1,59.96861242661847,2023-09-14 09h40.30.778396 +0530,
179,0,179,0,300.73529700003564,,300.72023400012404,300.73529700003564,301.7342791000847,301.7478163000196,302.34898010012694,up,1,0.6105510001070797,None,0,188245,001,2023-09-14_09h40.22.250,signal detection final- tutorial 2,2023.2.1,59.96861242661847,2023-09-14 09h40.30.778396 +0530,
180,0,180,0,302.3668417001609,,302.3547958000563,302.3668417001609,303.3631194999907,303.3631194999907,303.9810830000788,down,1,0.6080536001827568,None,-3,188245,001,2023-09-14_09h40.22.250,signal detection final- tutorial 2,2023.2.1,59.96861242661847,2023-09-14 09h40.30.778396 +0530,
181,0,181,0,303.99862500000745,,303.98553190007806,303.99862500000745,304.9952134999912,304.9952134999912,305.645640200004,up,1,0.6423128999304026,None,0,188245,001,2023-09-14_09h40.22.250,signal detection final- tutorial 2,2023.2.1,59.96861242661847,2023-09-14 09h40.30.778396 +0530,
182,0,182,0,305.66364100016654,,305.6492437000852,305.66364100016654,306.6602801999543,306.6602801999543,307.12811859999783,up,0,0.459559999871999,None,-2,188245,001,2023-09-14_09h40.22.250,signal detection final- tutorial 2,2023.2.1,59.96861242661847,2023-09-14 09h40.30.778396 +0530,
183,0,183,0,307.1459898999892,,307.1323210999835,307.1459898999892,308.14240020001307,308.14240020001307,308.6935449000448,up,1,0.54318380006589,None,0,188245,001,2023-09-14_09h40.22.250,signal detection final- tutorial 2,2023.2.1,59.96861242661847,2023-09-14 09h40.30.778396 +0530,
184,0,184,0,308.71130990004167,,308.6983344000764,308.71130990004167,309.70755319995806,309.70755319995806,310.3585568999406,up,1,0.6369354999624193,None,0,188245,001,2023-09-14_09h40.22.250,signal detection final- tutorial 2,2023.2.1,59.96861242661847,2023-09-14 09h40.30.778396 +0530,
185,0,185,0,310.3765209999401,,310.36392670008354,310.3765209999401,311.3731540001463,311.3731540001463,311.9070824000519,down,1,0.5170259999576956,None,-4,188245,001,2023-09-14_09h40.22.250,signal detection final- tutorial 2,2023.2.1,59.96861242661847,2023-09-14 09h40.30.778396 +0530,
186,0,186,0,311.9248709999956,,311.91160780005157,311.9248709999956,312.92156970012,312.92156970012,313.77303150016814,up,0,0.8442611000500619,None,-2,188245,001,2023-09-14_09h40.22.250,signal detection final- tutorial 2,2023.2.1,59.96861242661847,2023-09-14 09h40.30.778396 +0530,
187,0,187,0,313.7903528001625,,313.7779652001336,313.7903528001625,314.78649269999005,314.78649269999005,315.4713495001197,down,1,0.6677252999506891,None,-2,188245,001,2023-09-14_09h40.22.250,signal detection final- tutorial 2,2023.2.1,59.96861242661847,2023-09-14 09h40.30.778396 +0530,
188,0,188,0,315.4887482000049,,315.4766538001131,315.4887482000049,316.48502150014974,316.48502150014974,316.9860954999458,up,0,0.4934716001152992,None,0,188245,001,2023-09-14_09h40.22.250,signal detection final- tutorial 2,2023.2.1,59.96861242661847,2023-09-14 09h40.30.778396 +0530,
189,0,189,0,317.00376150012016,,316.99060530005954,317.00376150012016,318.0003413001541,318.0003413001541,318.63482190016657,up,0,0.618159000063315,None,-2,188245,001,2023-09-14_09h40.22.250,signal detection final- tutorial 2,2023.2.1,59.96861242661847,2023-09-14 09h40.30.778396 +0530,
190,0,190,0,318.6522819001693,,318.63975370000117,318.6522819001693,319.64892540010624,319.64892540010624,320.4667027001269,up,1,0.8032885000575334,None,0,188245,001,2023-09-14_09h40.22.250,signal detection final- tutorial 2,2023.2.1,59.96861242661847,2023-09-14 09h40.30.778396 +0530,
191,0,191,0,320.4842513001058,,320.4713439999614,320.4842513001058,321.4805145000573,321.4805145000573,322.2155524000991,down,1,0.7311664000153542,None,0,188245,001,2023-09-14_09h40.22.250,signal detection final- tutorial 2,2023.2.1,59.96861242661847,2023-09-14 09h40.30.778396 +0530,
192,0,192,0,322.23279040004127,,322.2202008999884,322.23279040004127,323.228658700129,323.228658700129,323.98001249996014,up,1,0.7403672998771071,None,0,188245,001,2023-09-14_09h40.22.250,signal detection final- tutorial 2,2023.2.1,59.96861242661847,2023-09-14 09h40.30.778396 +0530,
193,0,193,0,323.9981247000396,,323.9843824999407,323.9981247000396,324.99424679996446,324.99424679996446,325.7787508999463,up,1,0.767310099909082,None,0,188245,001,2023-09-14_09h40.22.250,signal detection final- tutorial 2,2023.2.1,59.96861242661847,2023-09-14 09h40.30.778396 +0530,
194,0,194,0,325.79652640013956,,325.7836260001641,325.79652640013956,326.7927204000298,326.7927204000298,327.34335770015605,up,1,0.5349105000495911,None,0,188245,001,2023-09-14_09h40.22.250,signal detection final- tutorial 2,2023.2.1,59.96861242661847,2023-09-14 09h40.30.778396 +0530,
195,0,195,0,327.36161190015264,,327.3484054999426,327.36161190015264,328.3580353001598,328.3580353001598,328.8425342000555,up,1,0.4820836998987943,None,0,188245,001,2023-09-14_09h40.22.250,signal detection final- tutorial 2,2023.2.1,59.96861242661847,2023-09-14 09h40.30.778396 +0530,
196,0,196,0,328.8603755000513,,328.84591379994527,328.8603755000513,329.8594333000947,329.87352310004644,330.6088442001492,down,1,0.746993999928236,None,2,188245,001,2023-09-14_09h40.22.250,signal detection final- tutorial 2,2023.2.1,59.96861242661847,2023-09-14 09h40.30.778396 +0530,
197,0,197,0,330.6253992000129,,330.6136948999483,330.6253992000129,331.6219862001017,331.6219862001017,332.38871840015054,up,1,0.750628300011158,None,0,188245,001,2023-09-14_09h40.22.250,signal detection final- tutorial 2,2023.2.1,59.96861242661847,2023-09-14 09h40.30.778396 +0530,
198,0,198,0,332.4073097000364,,332.39190299995244,332.4073097000364,333.40361679997295,333.40361679997295,334.0384468000848,down,1,0.6273639998398721,None,-3,188245,001,2023-09-14_09h40.22.250,signal detection final- tutorial 2,2023.2.1,59.96861242661847,2023-09-14 09h40.30.778396 +0530,
199,0,199,0,334.0562098000664,,334.04342809994705,334.0562098000664,335.0549558000639,335.06878460012376,336.0528739001602,up,1,0.9914237998891622,None,0,188245,001,2023-09-14_09h40.22.250,signal detection final- tutorial 2,2023.2.1,59.96861242661847,2023-09-14 09h40.30.778396 +0530,
