trials.thisRepN,trials.thisTrialN,trials.thisN,trials.thisIndex,trials_2.thisRepN,trials_2.thisTrialN,trials_2.thisN,trials_2.thisIndex,thisRow.t,notes,trial.started,num_distr,fixation.started,target.started,mouse.started,trial.stopped,mouse.x,mouse.y,mouse.leftButton,mouse.midButton,mouse.rightButton,mouse.clicked_name,participant,session,date,expName,psychopyVersion,frameRate,expStart,
0,0,0,0,0,0,0,0,0.04524470027536154,,0.006110300309956074,10,0.04524470027536154,0.04524470027536154,0.030231899581849575,1.8036499000154436,-0.027777777777777776,0.42962962962962964,1,0,0,target,442296,001,2023-09-28_01h43.16.486,VISUAL SEARCH TUTORIAL 3 FINAL DATA,2023.2.1,60.117830950059606,2023-09-28 01h43.23.959007 +0530,
0,0,0,0,1,0,1,0,1.825424199923873,,1.807725400198251,5,1.825424199923873,1.825424199923873,0.012636799830943346,3.302644799929112,0.2861111111111111,0.04537037037037037,1,0,0,target,442296,001,2023-09-28_01h43.16.486,VISUAL SEARCH TUTORIAL 3 FINAL DATA,2023.2.1,60.117830950059606,2023-09-28 01h43.23.959007 +0530,
0,0,0,0,2,0,2,0,3.3361724000424147,,3.304933600127697,10,3.3361724000424147,3.3361724000424147,0.02235250035300851,4.584271700121462,0.4462962962962963,0.22592592592592592,1,0,0,target,442296,001,2023-09-28_01h43.16.486,VISUAL SEARCH TUTORIAL 3 FINAL DATA,2023.2.1,60.117830950059606,2023-09-28 01h43.23.959007 +0530,
0,0,0,0,3,0,3,0,4.682481599971652,,4.587301100138575,10,4.682481599971652,4.682481599971652,0.08664450002834201,6.366105000022799,0.1712962962962963,0.006481481481481481,1,0,0,target,442296,001,2023-09-28_01h43.16.486,VISUAL SEARCH TUTORIAL 3 FINAL DATA,2023.2.1,60.117830950059606,2023-09-28 01h43.23.959007 +0530,
0,0,0,0,4,0,4,0,6.3962214002385736,,6.368247200269252,10,6.3962214002385736,6.3962214002385736,0.020252300426363945,8.064114500302821,-0.3333333333333333,0.4351851851851852,1,0,0,target,442296,001,2023-09-28_01h43.16.486,VISUAL SEARCH TUTORIAL 3 FINAL DATA,2023.2.1,60.117830950059606,2023-09-28 01h43.23.959007 +0530,
0,0,0,0,5,0,5,0,8.083818499930203,,8.06623850017786,5,8.083818499930203,8.083818499930203,0.010907200165092945,9.430846800096333,-0.3675925925925926,-0.07962962962962963,1,0,0,target,442296,001,2023-09-28_01h43.16.486,VISUAL SEARCH TUTORIAL 3 FINAL DATA,2023.2.1,60.117830950059606,2023-09-28 01h43.23.959007 +0530,
0,0,0,0,6,0,6,0,9.45602810010314,,9.434848499950022,5,9.45602810010314,9.45602810010314,0.014479599893093109,10.946209100075066,0.03333333333333333,-0.005555555555555556,1,0,0,target,442296,001,2023-09-28_01h43.16.486,VISUAL SEARCH TUTORIAL 3 FINAL DATA,2023.2.1,60.117830950059606,2023-09-28 01h43.23.959007 +0530,
0,0,0,0,7,0,7,0,10.98073700023815,,10.949325500056148,10,10.98073700023815,10.98073700023815,0.02129680011421442,12.327556400094181,-0.2712962962962963,-0.38981481481481484,1,0,0,target,442296,001,2023-09-28_01h43.16.486,VISUAL SEARCH TUTORIAL 3 FINAL DATA,2023.2.1,60.117830950059606,2023-09-28 01h43.23.959007 +0530,
0,0,0,0,8,0,8,0,12.3632942000404,,12.32971110008657,10,12.3632942000404,12.3632942000404,0.021165399812161922,13.693014400079846,0.33425925925925926,0.11203703703703703,1,0,0,target,442296,001,2023-09-28_01h43.16.486,VISUAL SEARCH TUTORIAL 3 FINAL DATA,2023.2.1,60.117830950059606,2023-09-28 01h43.23.959007 +0530,
0,0,0,0,9,0,9,0,13.713458500336856,,13.6951560000889,5,13.713458500336856,13.713458500336856,0.010943599976599216,14.692422199994326,0.24537037037037038,-0.04537037037037037,1,0,0,target,442296,001,2023-09-28_01h43.16.486,VISUAL SEARCH TUTORIAL 3 FINAL DATA,2023.2.1,60.117830950059606,2023-09-28 01h43.23.959007 +0530,
0,0,0,0,10,0,10,0,14.729214500170201,,14.694972800090909,10,14.729214500170201,14.729214500170201,0.02130979998037219,16.02427850011736,0.04351851851851852,0.20555555555555555,1,0,0,target,442296,001,2023-09-28_01h43.16.486,VISUAL SEARCH TUTORIAL 3 FINAL DATA,2023.2.1,60.117830950059606,2023-09-28 01h43.23.959007 +0530,
0,0,0,0,11,0,11,0,16.04492380004376,,16.026422100141644,5,16.04492380004376,16.04492380004376,0.010437099728733301,17.390616700053215,-0.29814814814814816,0.48518518518518516,1,0,0,target,442296,001,2023-09-28_01h43.16.486,VISUAL SEARCH TUTORIAL 3 FINAL DATA,2023.2.1,60.117830950059606,2023-09-28 01h43.23.959007 +0530,
0,0,0,0,12,0,12,0,17.43126490013674,,17.393911600112915,10,17.43126490013674,17.43126490013674,0.02399289980530739,18.391315800137818,-0.3287037037037037,0.4046296296296296,1,0,0,target,442296,001,2023-09-28_01h43.16.486,VISUAL SEARCH TUTORIAL 3 FINAL DATA,2023.2.1,60.117830950059606,2023-09-28 01h43.23.959007 +0530,
0,0,0,0,13,0,13,0,18.413702100049704,,18.3933912999928,5,18.413702100049704,18.413702100049704,0.011444500181823969,19.754949599970132,0.3194444444444444,0.2,1,0,0,target,442296,001,2023-09-28_01h43.16.486,VISUAL SEARCH TUTORIAL 3 FINAL DATA,2023.2.1,60.117830950059606,2023-09-28 01h43.23.959007 +0530,
0,0,0,0,14,0,14,0,19.776866300031543,,19.75737449992448,5,19.776866300031543,19.776866300031543,0.011067899875342846,21.486688800156116,-0.15555555555555556,-0.3037037037037037,1,0,0,target,442296,001,2023-09-28_01h43.16.486,VISUAL SEARCH TUTORIAL 3 FINAL DATA,2023.2.1,60.117830950059606,2023-09-28 01h43.23.959007 +0530,
0,0,0,0,15,0,15,0,21.512501399964094,,21.490837800316513,5,21.512501399964094,21.512501399964094,0.01317310007289052,22.72163589997217,-0.08518518518518518,0.07037037037037037,1,0,0,target,442296,001,2023-09-28_01h43.16.486,VISUAL SEARCH TUTORIAL 3 FINAL DATA,2023.2.1,60.117830950059606,2023-09-28 01h43.23.959007 +0530,
0,0,0,0,16,0,16,0,22.762222700286657,,22.72551569994539,10,22.762222700286657,22.762222700286657,0.024190299678593874,24.03435399988666,-0.13425925925925927,0.2388888888888889,1,0,0,target,442296,001,2023-09-28_01h43.16.486,VISUAL SEARCH TUTORIAL 3 FINAL DATA,2023.2.1,60.117830950059606,2023-09-28 01h43.23.959007 +0530,
0,0,0,0,17,0,17,0,24.054706000257283,,24.036523799877614,5,24.054706000257283,24.054706000257283,0.010698300320655107,25.333012000191957,0.1712962962962963,-0.06296296296296296,1,0,0,target,442296,001,2023-09-28_01h43.16.486,VISUAL SEARCH TUTORIAL 3 FINAL DATA,2023.2.1,60.117830950059606,2023-09-28 01h43.23.959007 +0530,
0,0,0,0,18,0,18,0,25.36908149998635,,25.33516320027411,10,25.36908149998635,25.36908149998635,0.02064830018207431,27.01641450030729,0.19074074074074074,-0.4046296296296296,1,0,0,target,442296,001,2023-09-28_01h43.16.486,VISUAL SEARCH TUTORIAL 3 FINAL DATA,2023.2.1,60.117830950059606,2023-09-28 01h43.23.959007 +0530,
0,0,0,0,19,0,19,0,27.056461799889803,,27.02001229999587,10,27.056461799889803,27.056461799889803,0.02323969965800643,28.763238500338048,-0.38425925925925924,0.21388888888888888,1,0,0,target,442296,001,2023-09-28_01h43.16.486,VISUAL SEARCH TUTORIAL 3 FINAL DATA,2023.2.1,60.117830950059606,2023-09-28 01h43.23.959007 +0530,
0,0,0,0,20,0,20,0,28.786459000315517,,28.76536210021004,5,28.786459000315517,28.786459000315517,0.012100900057703257,29.696173400152475,-0.4759259259259259,0.22685185185185186,1,0,0,target,442296,001,2023-09-28_01h43.16.486,VISUAL SEARCH TUTORIAL 3 FINAL DATA,2023.2.1,60.117830950059606,2023-09-28 01h43.23.959007 +0530,
0,0,0,0,21,0,21,0,29.717045499943197,,29.69887730013579,5,29.717045499943197,29.717045499943197,0.011048000305891037,30.89516740012914,-0.17962962962962964,-0.025925925925925925,1,0,0,target,442296,001,2023-09-28_01h43.16.486,VISUAL SEARCH TUTORIAL 3 FINAL DATA,2023.2.1,60.117830950059606,2023-09-28 01h43.23.959007 +0530,
0,0,0,0,22,0,22,0,30.93409670004621,,30.899961600080132,10,30.93409670004621,30.93409670004621,0.023531199898570776,32.17693840013817,-0.45925925925925926,-0.19166666666666668,1,0,0,target,442296,001,2023-09-28_01h43.16.486,VISUAL SEARCH TUTORIAL 3 FINAL DATA,2023.2.1,60.117830950059606,2023-09-28 01h43.23.959007 +0530,
0,0,0,0,23,0,23,0,32.197796100284904,,32.1795665002428,5,32.197796100284904,32.197796100284904,0.010675099678337574,33.72535970015451,-0.14444444444444443,0.1685185185185185,1,0,0,target,442296,001,2023-09-28_01h43.16.486,VISUAL SEARCH TUTORIAL 3 FINAL DATA,2023.2.1,60.117830950059606,2023-09-28 01h43.23.959007 +0530,
0,0,0,0,24,0,24,0,33.75824759993702,,33.72842800011858,10,33.75824759993702,33.75824759993702,0.021424700040370226,34.97438000002876,-0.47129629629629627,0.44074074074074077,1,0,0,target,442296,001,2023-09-28_01h43.16.486,VISUAL SEARCH TUTORIAL 3 FINAL DATA,2023.2.1,60.117830950059606,2023-09-28 01h43.23.959007 +0530,
0,0,0,0,25,0,25,0,35.01490900013596,,34.97669290006161,10,35.01490900013596,35.01490900013596,0.026378499809652567,36.839937100186944,0.10185185185185185,-0.37037037037037035,1,0,0,target,442296,001,2023-09-28_01h43.16.486,VISUAL SEARCH TUTORIAL 3 FINAL DATA,2023.2.1,60.117830950059606,2023-09-28 01h43.23.959007 +0530,
0,0,0,0,26,0,26,0,36.861318400129676,,36.842157900333405,5,36.861318400129676,36.861318400129676,0.010458500124514103,38.04143960028887,0.3592592592592593,0.13333333333333333,1,0,0,target,442296,001,2023-09-28_01h43.16.486,VISUAL SEARCH TUTORIAL 3 FINAL DATA,2023.2.1,60.117830950059606,2023-09-28 01h43.23.959007 +0530,
0,0,0,0,27,0,27,0,38.076946299988776,,38.044422400183976,10,38.076946299988776,38.076946299988776,0.021319800056517124,39.388960000127554,0.41574074074074074,-0.35833333333333334,1,0,0,target,442296,001,2023-09-28_01h43.16.486,VISUAL SEARCH TUTORIAL 3 FINAL DATA,2023.2.1,60.117830950059606,2023-09-28 01h43.23.959007 +0530,
0,0,0,0,28,0,28,0,39.413333400152624,,39.39105800027028,5,39.413333400152624,39.413333400152624,0.01402680017054081,40.70375110022724,0.3611111111111111,-0.36574074074074076,1,0,0,target,442296,001,2023-09-28_01h43.16.486,VISUAL SEARCH TUTORIAL 3 FINAL DATA,2023.2.1,60.117830950059606,2023-09-28 01h43.23.959007 +0530,
0,0,0,0,29,0,29,0,40.72524050017819,,40.7060151998885,5,40.72524050017819,40.72524050017819,0.01170790009200573,41.90239610010758,-0.26851851851851855,0.12314814814814815,1,0,0,target,442296,001,2023-09-28_01h43.16.486,VISUAL SEARCH TUTORIAL 3 FINAL DATA,2023.2.1,60.117830950059606,2023-09-28 01h43.23.959007 +0530,
0,0,0,0,30,0,30,0,41.92559160012752,,41.9061735002324,5,41.92559160012752,41.92559160012752,0.012181899975985289,43.217020800337195,0.14074074074074075,-0.17685185185185184,1,0,0,target,442296,001,2023-09-28_01h43.16.486,VISUAL SEARCH TUTORIAL 3 FINAL DATA,2023.2.1,60.117830950059606,2023-09-28 01h43.23.959007 +0530,
0,0,0,0,31,0,31,0,43.2578354999423,,43.21917370008305,10,43.2578354999423,43.2578354999423,0.026346500031650066,44.616321000270545,-0.26666666666666666,-0.10925925925925926,1,0,0,target,442296,001,2023-09-28_01h43.16.486,VISUAL SEARCH TUTORIAL 3 FINAL DATA,2023.2.1,60.117830950059606,2023-09-28 01h43.23.959007 +0530,
0,0,0,0,32,0,32,0,44.63902760017663,,44.619812100194395,5,44.63902760017663,44.63902760017663,0.011925300117582083,45.849094400182366,-0.27314814814814814,-0.4685185185185185,1,0,0,target,442296,001,2023-09-28_01h43.16.486,VISUAL SEARCH TUTORIAL 3 FINAL DATA,2023.2.1,60.117830950059606,2023-09-28 01h43.23.959007 +0530,
0,0,0,0,33,0,33,0,45.889119300059974,,45.853088499978185,10,45.889119300059974,45.889119300059974,0.0232120999135077,47.29718040022999,-0.21203703703703702,-0.10185185185185185,1,0,0,target,442296,001,2023-09-28_01h43.16.486,VISUAL SEARCH TUTORIAL 3 FINAL DATA,2023.2.1,60.117830950059606,2023-09-28 01h43.23.959007 +0530,
0,0,0,0,34,0,34,0,47.33399299997836,,47.299317200202495,10,47.33399299997836,47.33399299997836,0.022320699878036976,48.91274040006101,-0.4305555555555556,0.09351851851851851,1,0,0,target,442296,001,2023-09-28_01h43.16.486,VISUAL SEARCH TUTORIAL 3 FINAL DATA,2023.2.1,60.117830950059606,2023-09-28 01h43.23.959007 +0530,
0,0,0,0,35,0,35,0,48.93662080029026,,48.91689160000533,5,48.93662080029026,48.93662080029026,0.012779199983924627,49.9286865000613,-0.4462962962962963,0.004629629629629629,1,0,0,target,442296,001,2023-09-28_01h43.16.486,VISUAL SEARCH TUTORIAL 3 FINAL DATA,2023.2.1,60.117830950059606,2023-09-28 01h43.23.959007 +0530,
0,0,0,0,36,0,36,0,49.96521979989484,,49.93138840002939,10,49.96521979989484,49.96521979989484,0.02057840023189783,51.5432959003374,0.2101851851851852,-0.11481481481481481,1,0,0,target,442296,001,2023-09-28_01h43.16.486,VISUAL SEARCH TUTORIAL 3 FINAL DATA,2023.2.1,60.117830950059606,2023-09-28 01h43.23.959007 +0530,
0,0,0,0,37,0,37,0,51.57930580014363,,51.54546290030703,10,51.57930580014363,51.57930580014363,0.020830499939620495,52.87515849992633,-0.2851851851851852,0.12037037037037036,1,0,0,target,442296,001,2023-09-28_01h43.16.486,VISUAL SEARCH TUTORIAL 3 FINAL DATA,2023.2.1,60.117830950059606,2023-09-28 01h43.23.959007 +0530,
0,0,0,0,38,0,38,0,52.897128300275654,,52.87797289993614,5,52.897128300275654,52.897128300275654,0.011169000063091516,54.22402560012415,0.09814814814814815,0.018518518518518517,1,0,0,,442296,001,2023-09-28_01h43.16.486,VISUAL SEARCH TUTORIAL 3 FINAL DATA,2023.2.1,60.117830950059606,2023-09-28 01h43.23.959007 +0530,
0,0,0,0,39,0,39,0,54.2443813001737,,54.22630209987983,5,54.2443813001737,54.2443813001737,0.010606999974697828,55.373667899984866,0.13796296296296295,0.11296296296296296,1,0,0,target,442296,001,2023-09-28_01h43.16.486,VISUAL SEARCH TUTORIAL 3 FINAL DATA,2023.2.1,60.117830950059606,2023-09-28 01h43.23.959007 +0530,
0,0,0,0,40,0,40,0,55.40027939993888,,55.377800200134516,5,55.40027939993888,55.40027939993888,0.014605899807065725,57.039903100114316,-0.23055555555555557,-0.275,1,0,0,target,442296,001,2023-09-28_01h43.16.486,VISUAL SEARCH TUTORIAL 3 FINAL DATA,2023.2.1,60.117830950059606,2023-09-28 01h43.23.959007 +0530,
0,0,0,0,41,0,41,0,57.07612750027329,,57.04219900025055,10,57.07612750027329,57.07612750027329,0.021784800104796886,58.437034000176936,-0.12222222222222222,0.44074074074074077,1,0,0,target,442296,001,2023-09-28_01h43.16.486,VISUAL SEARCH TUTORIAL 3 FINAL DATA,2023.2.1,60.117830950059606,2023-09-28 01h43.23.959007 +0530,
0,0,0,0,42,0,42,0,58.47182390000671,,58.43920660018921,10,58.47182390000671,58.47182390000671,0.02017589984461665,60.01902549993247,0.000925925925925926,0.15648148148148147,1,0,0,target,442296,001,2023-09-28_01h43.16.486,VISUAL SEARCH TUTORIAL 3 FINAL DATA,2023.2.1,60.117830950059606,2023-09-28 01h43.23.959007 +0530,
0,0,0,0,43,0,43,0,60.03948020003736,,60.02113390015438,5,60.03948020003736,60.03948020003736,0.010704500135034323,61.33530370006338,0.3314814814814815,0.4925925925925926,1,0,0,target,442296,001,2023-09-28_01h43.16.486,VISUAL SEARCH TUTORIAL 3 FINAL DATA,2023.2.1,60.117830950059606,2023-09-28 01h43.23.959007 +0530,
0,0,0,0,44,0,44,0,61.37154910014942,,61.33861800003797,10,61.37154910014942,61.37154910014942,0.021525199990719557,62.60028990032151,0.06851851851851852,-0.22962962962962963,1,0,0,target,442296,001,2023-09-28_01h43.16.486,VISUAL SEARCH TUTORIAL 3 FINAL DATA,2023.2.1,60.117830950059606,2023-09-28 01h43.23.959007 +0530,
0,0,0,0,45,0,45,0,62.62033830024302,,62.602995600085706,5,62.62033830024302,62.62033830024302,0.010350100230425596,63.899716400075704,0.18981481481481483,0.008333333333333333,1,0,0,target,442296,001,2023-09-28_01h43.16.486,VISUAL SEARCH TUTORIAL 3 FINAL DATA,2023.2.1,60.117830950059606,2023-09-28 01h43.23.959007 +0530,
0,0,0,0,46,0,46,0,63.93561069993302,,63.902868300210685,10,63.93561069993302,63.93561069993302,0.02139989985153079,65.04805479990318,-0.040740740740740744,-0.2037037037037037,1,0,0,target,442296,001,2023-09-28_01h43.16.486,VISUAL SEARCH TUTORIAL 3 FINAL DATA,2023.2.1,60.117830950059606,2023-09-28 01h43.23.959007 +0530,
0,0,0,0,47,0,47,0,65.06902930000797,,65.05016060033813,5,65.06902930000797,65.06902930000797,0.01090839970856905,66.31458730017766,0.4305555555555556,-0.3638888888888889,1,0,0,target,442296,001,2023-09-28_01h43.16.486,VISUAL SEARCH TUTORIAL 3 FINAL DATA,2023.2.1,60.117830950059606,2023-09-28 01h43.23.959007 +0530,
0,0,0,0,48,0,48,0,66.3526939000003,,66.31858160020784,10,66.3526939000003,66.3526939000003,0.02339200023561716,69.2616264000535,-0.3314814814814815,0.2824074074074074,1,0,0,target,442296,001,2023-09-28_01h43.16.486,VISUAL SEARCH TUTORIAL 3 FINAL DATA,2023.2.1,60.117830950059606,2023-09-28 01h43.23.959007 +0530,
0,0,0,0,49,0,49,0,69.29801709996536,,69.2648901999928,10,69.29801709996536,69.29801709996536,0.021531700156629086,71.15947980014607,0.13055555555555556,-0.20092592592592592,1,0,0,target,442296,001,2023-09-28_01h43.16.486,VISUAL SEARCH TUTORIAL 3 FINAL DATA,2023.2.1,60.117830950059606,2023-09-28 01h43.23.959007 +0530,
0,0,0,0,50,0,50,0,71.18008220009506,,71.16166220000014,5,71.18008220009506,71.18008220009506,0.010595100000500679,72.94128700019792,0.05092592592592592,0.4462962962962963,1,0,0,target,442296,001,2023-09-28_01h43.16.486,VISUAL SEARCH TUTORIAL 3 FINAL DATA,2023.2.1,60.117830950059606,2023-09-28 01h43.23.959007 +0530,
0,0,0,0,51,0,51,0,72.97776360018179,,72.94341360032558,10,72.97776360018179,72.97776360018179,0.020794699899852276,74.12348170019686,0.23703703703703705,0.18703703703703703,1,0,0,target,442296,001,2023-09-28_01h43.16.486,VISUAL SEARCH TUTORIAL 3 FINAL DATA,2023.2.1,60.117830950059606,2023-09-28 01h43.23.959007 +0530,
0,0,0,0,52,0,52,0,74.1587181002833,,74.12567030033097,10,74.1587181002833,74.1587181002833,0.020166500005871058,75.38918300019577,0.3990740740740741,0.05648148148148148,1,0,0,target,442296,001,2023-09-28_01h43.16.486,VISUAL SEARCH TUTORIAL 3 FINAL DATA,2023.2.1,60.117830950059606,2023-09-28 01h43.23.959007 +0530,
0,0,0,0,53,0,53,0,75.41317450022325,,75.39141779998317,5,75.41317450022325,75.41317450022325,0.014513100031763315,76.87162999995053,-0.43333333333333335,-0.46111111111111114,1,0,0,,442296,001,2023-09-28_01h43.16.486,VISUAL SEARCH TUTORIAL 3 FINAL DATA,2023.2.1,60.117830950059606,2023-09-28 01h43.23.959007 +0530,
0,0,0,0,54,0,54,0,76.9077349002473,,76.87357520032674,10,76.9077349002473,76.9077349002473,0.020765299908816814,78.37064990028739,0.0962962962962963,-0.05277777777777778,1,0,0,target,442296,001,2023-09-28_01h43.16.486,VISUAL SEARCH TUTORIAL 3 FINAL DATA,2023.2.1,60.117830950059606,2023-09-28 01h43.23.959007 +0530,
0,0,0,0,55,0,55,0,78.40677390014753,,78.37342229997739,10,78.40677390014753,78.40677390014753,0.020206999965012074,79.45280950004235,-0.046296296296296294,0.08981481481481482,1,0,0,target,442296,001,2023-09-28_01h43.16.486,VISUAL SEARCH TUTORIAL 3 FINAL DATA,2023.2.1,60.117830950059606,2023-09-28 01h43.23.959007 +0530,
0,0,0,0,56,0,56,0,79.49253500020131,,79.45495539996773,10,79.49253500020131,79.49253500020131,0.02408199990168214,80.9682265999727,-0.20462962962962963,-0.03796296296296296,1,0,0,target,442296,001,2023-09-28_01h43.16.486,VISUAL SEARCH TUTORIAL 3 FINAL DATA,2023.2.1,60.117830950059606,2023-09-28 01h43.23.959007 +0530,
0,0,0,0,57,0,57,0,81.0029056998901,,80.97033550031483,10,81.0029056998901,81.0029056998901,0.02029919996857643,82.71698140027002,0.08888888888888889,-0.019444444444444445,1,0,0,target,442296,001,2023-09-28_01h43.16.486,VISUAL SEARCH TUTORIAL 3 FINAL DATA,2023.2.1,60.117830950059606,2023-09-28 01h43.23.959007 +0530,
0,0,0,0,58,0,58,0,82.74597440008074,,82.72124830028042,5,82.74597440008074,82.74597440008074,0.018347100354731083,84.94741309992969,-0.3990740740740741,0.06296296296296296,1,0,0,target,442296,001,2023-09-28_01h43.16.486,VISUAL SEARCH TUTORIAL 3 FINAL DATA,2023.2.1,60.117830950059606,2023-09-28 01h43.23.959007 +0530,
0,0,0,0,59,0,59,0,84.96725910017267,,84.94953350024298,5,84.96725910017267,84.96725910017267,0.010422499850392342,85.98410620028153,-0.4703703703703704,0.002777777777777778,1,0,0,target,442296,001,2023-09-28_01h43.16.486,VISUAL SEARCH TUTORIAL 3 FINAL DATA,2023.2.1,60.117830950059606,2023-09-28 01h43.23.959007 +0530,
0,0,0,0,60,0,60,0,86.02966549992561,,85.98859329987317,10,86.02966549992561,86.02966549992561,0.02676759986206889,87.5128371999599,-0.028703703703703703,-0.05648148148148148,1,0,0,target,442296,001,2023-09-28_01h43.16.486,VISUAL SEARCH TUTORIAL 3 FINAL DATA,2023.2.1,60.117830950059606,2023-09-28 01h43.23.959007 +0530,
0,0,0,0,61,0,61,0,87.53488699998707,,87.51518040010706,5,87.53488699998707,87.53488699998707,0.011867699678987265,89.1277268002741,-0.34814814814814815,0.3537037037037037,1,0,0,target,442296,001,2023-09-28_01h43.16.486,VISUAL SEARCH TUTORIAL 3 FINAL DATA,2023.2.1,60.117830950059606,2023-09-28 01h43.23.959007 +0530,
0,0,0,0,62,0,62,0,89.16404950013384,,89.13052970031276,10,89.16404950013384,89.16404950013384,0.020739400293678045,90.70920420018956,0.3287037037037037,0.2962962962962963,1,0,0,target,442296,001,2023-09-28_01h43.16.486,VISUAL SEARCH TUTORIAL 3 FINAL DATA,2023.2.1,60.117830950059606,2023-09-28 01h43.23.959007 +0530,
0,0,0,0,63,0,63,0,90.73379760002717,,90.71208349987864,5,90.73379760002717,90.73379760002717,0.01299120020121336,92.04129440011457,-0.06111111111111111,0.12037037037037036,1,0,0,target,442296,001,2023-09-28_01h43.16.486,VISUAL SEARCH TUTORIAL 3 FINAL DATA,2023.2.1,60.117830950059606,2023-09-28 01h43.23.959007 +0530,
0,0,0,0,64,0,64,0,92.07631170004606,,92.0434399000369,10,92.07631170004606,92.07631170004606,0.02013299986720085,93.6399636999704,0.46111111111111114,0.14166666666666666,1,0,0,target,442296,001,2023-09-28_01h43.16.486,VISUAL SEARCH TUTORIAL 3 FINAL DATA,2023.2.1,60.117830950059606,2023-09-28 01h43.23.959007 +0530,
0,0,0,0,65,0,65,0,93.66421910002828,,93.64211270026863,5,93.66421910002828,93.66421910002828,0.01382100023329258,95.77249330002815,0.009259259259259259,0.4009259259259259,1,0,0,target,442296,001,2023-09-28_01h43.16.486,VISUAL SEARCH TUTORIAL 3 FINAL DATA,2023.2.1,60.117830950059606,2023-09-28 01h43.23.959007 +0530,
0,0,0,0,66,0,66,0,95.80811029998586,,95.77473250031471,10,95.80811029998586,95.80811029998586,0.021209599915891886,97.05743029993027,-0.3925925925925926,0.39537037037037037,1,0,0,target,442296,001,2023-09-28_01h43.16.486,VISUAL SEARCH TUTORIAL 3 FINAL DATA,2023.2.1,60.117830950059606,2023-09-28 01h43.23.959007 +0530,
0,0,0,0,67,0,67,0,97.07748920004815,,97.05949790030718,5,97.07748920004815,97.07748920004815,0.011018299963325262,98.35284310020506,0.45092592592592595,0.43425925925925923,1,0,0,target,442296,001,2023-09-28_01h43.16.486,VISUAL SEARCH TUTORIAL 3 FINAL DATA,2023.2.1,60.117830950059606,2023-09-28 01h43.23.959007 +0530,
0,0,0,0,68,0,68,0,98.38632400007918,,98.3551664003171,10,98.38632400007918,98.38632400007918,0.02072599995881319,99.65331620024517,0.375,0.29444444444444445,1,0,0,target,442296,001,2023-09-28_01h43.16.486,VISUAL SEARCH TUTORIAL 3 FINAL DATA,2023.2.1,60.117830950059606,2023-09-28 01h43.23.959007 +0530,
0,0,0,0,69,0,69,0,99.6922229998745,,99.65633339993656,10,99.6922229998745,99.6922229998745,0.023386900313198566,100.98400299996138,0.2777777777777778,-0.04351851851851852,1,0,0,target,442296,001,2023-09-28_01h43.16.486,VISUAL SEARCH TUTORIAL 3 FINAL DATA,2023.2.1,60.117830950059606,2023-09-28 01h43.23.959007 +0530,
0,0,0,0,70,0,70,0,101.0062162000686,,100.98615160025656,5,101.0062162000686,101.0062162000686,0.011147699784487486,103.19863250013441,0.4666666666666667,0.47314814814814815,1,0,0,target,442296,001,2023-09-28_01h43.16.486,VISUAL SEARCH TUTORIAL 3 FINAL DATA,2023.2.1,60.117830950059606,2023-09-28 01h43.23.959007 +0530,
0,0,0,0,71,0,71,0,103.22645060019568,,103.20280410023406,5,103.22645060019568,103.22645060019568,0.017807300202548504,104.9306609001942,0.027777777777777776,-0.10185185185185185,1,0,0,target,442296,001,2023-09-28_01h43.16.486,VISUAL SEARCH TUTORIAL 3 FINAL DATA,2023.2.1,60.117830950059606,2023-09-28 01h43.23.959007 +0530,
0,0,0,0,72,0,72,0,104.96543530002236,,104.93285760004073,10,104.96543530002236,104.96543530002236,0.020346700213849545,106.96477359998971,0.3111111111111111,0.36666666666666664,1,0,0,target,442296,001,2023-09-28_01h43.16.486,VISUAL SEARCH TUTORIAL 3 FINAL DATA,2023.2.1,60.117830950059606,2023-09-28 01h43.23.959007 +0530,
0,0,0,0,73,0,73,0,107.0034558000043,,106.96786209987476,10,107.0034558000043,107.0034558000043,0.023312800098210573,109.09288500016555,0.2675925925925926,-0.4166666666666667,1,0,0,target,442296,001,2023-09-28_01h43.16.486,VISUAL SEARCH TUTORIAL 3 FINAL DATA,2023.2.1,60.117830950059606,2023-09-28 01h43.23.959007 +0530,
0,0,0,0,74,0,74,0,109.11362110031769,,109.09506600024179,5,109.11362110031769,109.11362110031769,0.01030030008405447,110.8753098002635,-0.1935185185185185,0.3592592592592593,1,0,0,target,442296,001,2023-09-28_01h43.16.486,VISUAL SEARCH TUTORIAL 3 FINAL DATA,2023.2.1,60.117830950059606,2023-09-28 01h43.23.959007 +0530,
0,0,0,0,75,0,75,0,110.89620999991894,,110.87746259989217,5,110.89620999991894,110.89620999991894,0.010707700159400702,112.22443279996514,-0.27037037037037037,-0.07962962962962963,1,0,0,target,442296,001,2023-09-28_01h43.16.486,VISUAL SEARCH TUTORIAL 3 FINAL DATA,2023.2.1,60.117830950059606,2023-09-28 01h43.23.959007 +0530,
0,0,0,0,76,0,76,0,112.26125669991598,,112.22840700019151,10,112.26125669991598,112.26125669991598,0.022174200043082237,116.00390490004793,-0.37962962962962965,0.5,1,0,0,target,442296,001,2023-09-28_01h43.16.486,VISUAL SEARCH TUTORIAL 3 FINAL DATA,2023.2.1,60.117830950059606,2023-09-28 01h43.23.959007 +0530,
0,0,0,0,77,0,77,0,116.04000340029597,,116.00605150032789,10,116.04000340029597,116.04000340029597,0.02100900001823902,117.00303209992126,0.017592592592592594,0.058333333333333334,1,0,0,target,442296,001,2023-09-28_01h43.16.486,VISUAL SEARCH TUTORIAL 3 FINAL DATA,2023.2.1,60.117830950059606,2023-09-28 01h43.23.959007 +0530,
0,0,0,0,78,0,78,0,117.02451070025563,,117.00517180003226,5,117.02451070025563,117.02451070025563,0.010923100169748068,118.268365399912,-0.462037037037037,0.5,1,0,0,target,442296,001,2023-09-28_01h43.16.486,VISUAL SEARCH TUTORIAL 3 FINAL DATA,2023.2.1,60.117830950059606,2023-09-28 01h43.23.959007 +0530,
0,0,0,0,79,0,79,0,118.28993119997904,,118.27085290011019,5,118.28993119997904,118.28993119997904,0.01160690002143383,120.11725450027734,0.20555555555555555,0.4842592592592593,1,0,0,target,442296,001,2023-09-28_01h43.16.486,VISUAL SEARCH TUTORIAL 3 FINAL DATA,2023.2.1,60.117830950059606,2023-09-28 01h43.23.959007 +0530,
0,0,0,0,80,0,80,0,120.15563620021567,,120.12064950028434,10,120.15563620021567,120.15563620021567,0.021186800207942724,121.64839580003172,-0.18888888888888888,0.45,1,0,0,target,442296,001,2023-09-28_01h43.16.486,VISUAL SEARCH TUTORIAL 3 FINAL DATA,2023.2.1,60.117830950059606,2023-09-28 01h43.23.959007 +0530,
0,0,0,0,81,0,81,0,121.6842102999799,,121.65061130002141,10,121.6842102999799,121.6842102999799,0.021411600057035685,123.04792879987508,-0.08518518518518518,-0.3962962962962963,1,0,0,target,442296,001,2023-09-28_01h43.16.486,VISUAL SEARCH TUTORIAL 3 FINAL DATA,2023.2.1,60.117830950059606,2023-09-28 01h43.23.959007 +0530,
0,0,0,0,82,0,82,0,123.06887670001015,,123.05006049992517,5,123.06887670001015,123.06887670001015,0.010818300303071737,124.73029570002109,-0.35,0.006481481481481481,1,0,0,target,442296,001,2023-09-28_01h43.16.486,VISUAL SEARCH TUTORIAL 3 FINAL DATA,2023.2.1,60.117830950059606,2023-09-28 01h43.23.959007 +0530,
0,0,0,0,83,0,83,0,124.75702140014619,,124.73571360018104,5,124.75702140014619,124.75702140014619,0.01358530018478632,126.19649820029736,0.2833333333333333,0.06851851851851852,1,0,0,target,442296,001,2023-09-28_01h43.16.486,VISUAL SEARCH TUTORIAL 3 FINAL DATA,2023.2.1,60.117830950059606,2023-09-28 01h43.23.959007 +0530,
0,0,0,0,84,0,84,0,126.23402730003,,126.19910479988903,10,126.23402730003,126.23402730003,0.022017099894583225,127.66069560032338,-0.2462962962962963,0.24444444444444444,1,0,0,target,442296,001,2023-09-28_01h43.16.486,VISUAL SEARCH TUTORIAL 3 FINAL DATA,2023.2.1,60.117830950059606,2023-09-28 01h43.23.959007 +0530,
0,0,0,0,85,0,85,0,127.69631920009851,,127.66287219990045,10,127.69631920009851,127.69631920009851,0.020590199623256922,128.92526010004804,-0.04259259259259259,0.125,1,0,0,target,442296,001,2023-09-28_01h43.16.486,VISUAL SEARCH TUTORIAL 3 FINAL DATA,2023.2.1,60.117830950059606,2023-09-28 01h43.23.959007 +0530,
0,0,0,0,86,0,86,0,128.96354460017756,,128.92870669998229,10,128.96354460017756,128.96354460017756,0.021662999875843525,131.0112252002582,-0.325,-0.3814814814814815,1,0,0,target,442296,001,2023-09-28_01h43.16.486,VISUAL SEARCH TUTORIAL 3 FINAL DATA,2023.2.1,60.117830950059606,2023-09-28 01h43.23.959007 +0530,
0,0,0,0,87,0,87,0,131.03727889992297,,131.01466730004176,5,131.03727889992297,131.03727889992297,0.014948100317269564,132.4731316003017,-0.21851851851851853,0.19537037037037036,1,0,0,target,442296,001,2023-09-28_01h43.16.486,VISUAL SEARCH TUTORIAL 3 FINAL DATA,2023.2.1,60.117830950059606,2023-09-28 01h43.23.959007 +0530,
0,0,0,0,88,0,88,0,132.49548570020124,,132.47529370011762,5,132.49548570020124,132.49548570020124,0.01166869979351759,133.73867799993604,-0.21666666666666667,-0.13425925925925927,1,0,0,target,442296,001,2023-09-28_01h43.16.486,VISUAL SEARCH TUTORIAL 3 FINAL DATA,2023.2.1,60.117830950059606,2023-09-28 01h43.23.959007 +0530,
0,0,0,0,89,0,89,0,133.77716620033607,,133.74241159996018,10,133.77716620033607,133.77716620033607,0.02213420020416379,134.98738850001246,-0.36203703703703705,-0.37777777777777777,1,0,0,,442296,001,2023-09-28_01h43.16.486,VISUAL SEARCH TUTORIAL 3 FINAL DATA,2023.2.1,60.117830950059606,2023-09-28 01h43.23.959007 +0530,
0,0,0,0,90,0,90,0,135.0070325001143,,134.98927409993485,5,135.0070325001143,135.0070325001143,0.010757999960333109,136.0193908000365,-0.2898148148148148,-0.31296296296296294,1,0,0,target,442296,001,2023-09-28_01h43.16.486,VISUAL SEARCH TUTORIAL 3 FINAL DATA,2023.2.1,60.117830950059606,2023-09-28 01h43.23.959007 +0530,
0,0,0,0,91,0,91,0,136.06216609990224,,136.0220933998935,10,136.06216609990224,136.06216609990224,0.03042680025100708,137.76787950005382,0.13240740740740742,-0.4648148148148148,1,0,0,target,442296,001,2023-09-28_01h43.16.486,VISUAL SEARCH TUTORIAL 3 FINAL DATA,2023.2.1,60.117830950059606,2023-09-28 01h43.23.959007 +0530,
0,0,0,0,92,0,92,0,137.78918289998546,,137.77005410008132,5,137.78918289998546,137.78918289998546,0.010756799951195717,139.10215889988467,-0.04351851851851852,-0.4287037037037037,1,0,0,target,442296,001,2023-09-28_01h43.16.486,VISUAL SEARCH TUTORIAL 3 FINAL DATA,2023.2.1,60.117830950059606,2023-09-28 01h43.23.959007 +0530,
0,0,0,0,93,0,93,0,139.12351590022445,,139.10436470014974,5,139.12351590022445,139.12351590022445,0.011107100173830986,140.43299240013584,-0.18611111111111112,-0.08518518518518518,1,0,0,target,442296,001,2023-09-28_01h43.16.486,VISUAL SEARCH TUTORIAL 3 FINAL DATA,2023.2.1,60.117830950059606,2023-09-28 01h43.23.959007 +0530,
0,0,0,0,94,0,94,0,140.45425310032442,,140.43598120007664,5,140.45425310032442,140.45425310032442,0.011596200056374073,141.58163020014763,0.23796296296296296,-0.002777777777777778,1,0,0,target,442296,001,2023-09-28_01h43.16.486,VISUAL SEARCH TUTORIAL 3 FINAL DATA,2023.2.1,60.117830950059606,2023-09-28 01h43.23.959007 +0530,
0,0,0,0,95,0,95,0,141.60352770006284,,141.58463880000636,5,141.60352770006284,141.60352770006284,0.011249099858105183,142.9805328999646,0.34629629629629627,-0.33611111111111114,1,0,0,target,442296,001,2023-09-28_01h43.16.486,VISUAL SEARCH TUTORIAL 3 FINAL DATA,2023.2.1,60.117830950059606,2023-09-28 01h43.23.959007 +0530,
0,0,0,0,96,0,96,0,143.00312869995832,,142.9842511001043,5,143.00312869995832,143.00312869995832,0.012110999785363674,144.72949729999527,-0.26851851851851855,0.3861111111111111,1,0,0,target,442296,001,2023-09-28_01h43.16.486,VISUAL SEARCH TUTORIAL 3 FINAL DATA,2023.2.1,60.117830950059606,2023-09-28 01h43.23.959007 +0530,
0,0,0,0,97,0,97,0,144.76588550023735,,144.73276050016284,10,144.76588550023735,144.76588550023735,0.021882000379264355,146.0165977999568,-0.1712962962962963,0.35648148148148145,1,0,0,target,442296,001,2023-09-28_01h43.16.486,VISUAL SEARCH TUTORIAL 3 FINAL DATA,2023.2.1,60.117830950059606,2023-09-28 01h43.23.959007 +0530,
0,0,0,0,98,0,98,0,146.0414209002629,,146.01964810024947,5,146.0414209002629,146.0414209002629,0.012984899803996086,147.80997870024294,-0.14444444444444443,-0.33240740740740743,1,0,0,target,442296,001,2023-09-28_01h43.16.486,VISUAL SEARCH TUTORIAL 3 FINAL DATA,2023.2.1,60.117830950059606,2023-09-28 01h43.23.959007 +0530,
0,0,0,0,99,0,99,0,147.8398040998727,,147.81612440012395,5,147.8398040998727,147.8398040998727,0.01576129999011755,149.37467540008947,-0.4324074074074074,0.3416666666666667,1,0,0,target,442296,001,2023-09-28_01h43.16.486,VISUAL SEARCH TUTORIAL 3 FINAL DATA,2023.2.1,60.117830950059606,2023-09-28 01h43.23.959007 +0530,
0,0,0,0,100,0,100,0,149.41121669998392,,149.37712610000744,10,149.41121669998392,149.41121669998392,0.021130399778485298,150.7235071999021,-0.49722222222222223,0.19907407407407407,1,0,0,target,442296,001,2023-09-28_01h43.16.486,VISUAL SEARCH TUTORIAL 3 FINAL DATA,2023.2.1,60.117830950059606,2023-09-28 01h43.23.959007 +0530,
0,0,0,0,101,0,101,0,150.74384490028024,,150.72612840030342,5,150.74384490028024,150.74384490028024,0.010932500008493662,151.92254769988358,-0.15092592592592594,-0.37037037037037035,1,0,0,target,442296,001,2023-09-28_01h43.16.486,VISUAL SEARCH TUTORIAL 3 FINAL DATA,2023.2.1,60.117830950059606,2023-09-28 01h43.23.959007 +0530,
0,0,0,0,102,0,102,0,151.94315320020542,,151.92474779998884,5,151.94315320020542,151.94315320020542,0.010886100120842457,153.38804270001128,-0.3453703703703704,0.3175925925925926,1,0,0,target,442296,001,2023-09-28_01h43.16.486,VISUAL SEARCH TUTORIAL 3 FINAL DATA,2023.2.1,60.117830950059606,2023-09-28 01h43.23.959007 +0530,
0,0,0,0,103,0,103,0,153.4084467003122,,153.39015380013734,5,153.4084467003122,153.4084467003122,0.010588899720460176,155.17019150033593,0.15648148148148147,-0.3138888888888889,1,0,0,target,442296,001,2023-09-28_01h43.16.486,VISUAL SEARCH TUTORIAL 3 FINAL DATA,2023.2.1,60.117830950059606,2023-09-28 01h43.23.959007 +0530,
0,0,0,0,104,0,104,0,155.19257970014587,,155.17385860020295,5,155.19257970014587,155.19257970014587,0.01204079994931817,156.80177830019966,0.3333333333333333,0.20185185185185187,1,0,0,target,442296,001,2023-09-28_01h43.16.486,VISUAL SEARCH TUTORIAL 3 FINAL DATA,2023.2.1,60.117830950059606,2023-09-28 01h43.23.959007 +0530,
0,0,0,0,105,0,105,0,156.8276154003106,,156.8051308998838,5,156.8276154003106,156.8276154003106,0.013826500158756971,157.91766840033233,0.2898148148148148,0.22314814814814815,1,0,0,target,442296,001,2023-09-28_01h43.16.486,VISUAL SEARCH TUTORIAL 3 FINAL DATA,2023.2.1,60.117830950059606,2023-09-28 01h43.23.959007 +0530,
0,0,0,0,106,0,106,0,157.9425869002007,,157.92238999996334,5,157.9425869002007,157.9425869002007,0.013439500238746405,159.31602880032733,-0.17222222222222222,-0.41574074074074074,1,0,0,target,442296,001,2023-09-28_01h43.16.486,VISUAL SEARCH TUTORIAL 3 FINAL DATA,2023.2.1,60.117830950059606,2023-09-28 01h43.23.959007 +0530,
0,0,0,0,107,0,107,0,159.35141230002046,,159.3185054003261,10,159.35141230002046,159.35141230002046,0.020763700362294912,160.84783060010523,-0.3148148148148148,-0.023148148148148147,1,0,0,target,442296,001,2023-09-28_01h43.16.486,VISUAL SEARCH TUTORIAL 3 FINAL DATA,2023.2.1,60.117830950059606,2023-09-28 01h43.23.959007 +0530,
0,0,0,0,108,0,108,0,160.88426030008122,,160.8502004002221,10,160.88426030008122,160.88426030008122,0.020873500034213066,162.06441419990733,0.15,0.2101851851851852,1,0,0,target,442296,001,2023-09-28_01h43.16.486,VISUAL SEARCH TUTORIAL 3 FINAL DATA,2023.2.1,60.117830950059606,2023-09-28 01h43.23.959007 +0530,
0,0,0,0,109,0,109,0,162.0875686001964,,162.06801890023053,5,162.0875686001964,162.0875686001964,0.01262119971215725,163.4960294002667,0.4287037037037037,0.07037037037037037,1,0,0,target,442296,001,2023-09-28_01h43.16.486,VISUAL SEARCH TUTORIAL 3 FINAL DATA,2023.2.1,60.117830950059606,2023-09-28 01h43.23.959007 +0530,
0,0,0,0,110,0,110,0,163.51694130012766,,163.49822210008278,5,163.51694130012766,163.51694130012766,0.010543500073254108,164.9108986002393,-0.14537037037037037,-0.26666666666666666,1,0,0,target,442296,001,2023-09-28_01h43.16.486,VISUAL SEARCH TUTORIAL 3 FINAL DATA,2023.2.1,60.117830950059606,2023-09-28 01h43.23.959007 +0530,
0,0,0,0,111,0,111,0,164.9319962998852,,164.9130667001009,5,164.9319962998852,164.9319962998852,0.010445999912917614,166.56180470017716,-0.4166666666666667,0.13055555555555556,1,0,0,target,442296,001,2023-09-28_01h43.16.486,VISUAL SEARCH TUTORIAL 3 FINAL DATA,2023.2.1,60.117830950059606,2023-09-28 01h43.23.959007 +0530,
0,0,0,0,112,0,112,0,166.58281469997019,,166.56452260026708,5,166.58281469997019,166.58281469997019,0.010664999950677156,168.27463430026546,0.30925925925925923,-0.19722222222222222,1,0,0,target,442296,001,2023-09-28_01h43.16.486,VISUAL SEARCH TUTORIAL 3 FINAL DATA,2023.2.1,60.117830950059606,2023-09-28 01h43.23.959007 +0530,
0,0,0,0,113,0,113,0,168.30940190004185,,168.27699810033664,10,168.30940190004185,168.30940190004185,0.020675400272011757,169.82383470004424,-0.3851851851851852,-0.33055555555555555,1,0,0,target,442296,001,2023-09-28_01h43.16.486,VISUAL SEARCH TUTORIAL 3 FINAL DATA,2023.2.1,60.117830950059606,2023-09-28 01h43.23.959007 +0530,
0,0,0,0,114,0,114,0,169.84707010025159,,169.82764790020883,5,169.84707010025159,169.84707010025159,0.012507099658250809,172.5555326999165,-0.4101851851851852,0.3435185185185185,1,0,0,target,442296,001,2023-09-28_01h43.16.486,VISUAL SEARCH TUTORIAL 3 FINAL DATA,2023.2.1,60.117830950059606,2023-09-28 01h43.23.959007 +0530,
0,0,0,0,115,0,115,0,172.58102340018377,,172.56007499992847,5,172.58102340018377,172.58102340018377,0.013515799771994352,174.136853300035,0.2,0.4305555555555556,1,0,0,target,442296,001,2023-09-28_01h43.16.486,VISUAL SEARCH TUTORIAL 3 FINAL DATA,2023.2.1,60.117830950059606,2023-09-28 01h43.23.959007 +0530,
0,0,0,0,116,0,116,0,174.1606526998803,,174.13921280018985,5,174.1606526998803,174.1606526998803,0.010865299962460995,175.40259490022436,-0.19074074074074074,-0.10740740740740741,1,0,0,target,442296,001,2023-09-28_01h43.16.486,VISUAL SEARCH TUTORIAL 3 FINAL DATA,2023.2.1,60.117830950059606,2023-09-28 01h43.23.959007 +0530,
0,0,0,0,117,0,117,0,175.44137080013752,,175.40655869990587,10,175.44137080013752,175.44137080013752,0.02180719980970025,176.66797220008448,0.028703703703703703,0.3592592592592593,1,0,0,target,442296,001,2023-09-28_01h43.16.486,VISUAL SEARCH TUTORIAL 3 FINAL DATA,2023.2.1,60.117830950059606,2023-09-28 01h43.23.959007 +0530,
0,0,0,0,118,0,118,0,176.69121430022642,,176.67132329987362,5,176.69121430022642,176.69121430022642,0.012615000363439322,177.88475110009313,-0.06296296296296296,0.3416666666666667,1,0,0,target,442296,001,2023-09-28_01h43.16.486,VISUAL SEARCH TUTORIAL 3 FINAL DATA,2023.2.1,60.117830950059606,2023-09-28 01h43.23.959007 +0530,
0,0,0,0,119,0,119,0,177.90569370007142,,177.88692210009322,5,177.90569370007142,177.90569370007142,0.01073679979890585,179.0496944002807,-0.28055555555555556,0.3055555555555556,1,0,0,target,442296,001,2023-09-28_01h43.16.486,VISUAL SEARCH TUTORIAL 3 FINAL DATA,2023.2.1,60.117830950059606,2023-09-28 01h43.23.959007 +0530,
0,0,0,0,120,0,120,0,179.08718729997054,,179.0535909999162,10,179.08718729997054,179.08718729997054,0.02240999974310398,180.86400360008702,-0.3527777777777778,-0.20185185185185187,1,0,0,target,442296,001,2023-09-28_01h43.16.486,VISUAL SEARCH TUTORIAL 3 FINAL DATA,2023.2.1,60.117830950059606,2023-09-28 01h43.23.959007 +0530,
0,0,0,0,121,0,121,0,180.88844550028443,,180.86720860004425,5,180.88844550028443,180.88844550028443,0.014231299981474876,182.59620840009302,0.2675925925925926,0.3907407407407407,1,0,0,target,442296,001,2023-09-28_01h43.16.486,VISUAL SEARCH TUTORIAL 3 FINAL DATA,2023.2.1,60.117830950059606,2023-09-28 01h43.23.959007 +0530,
0,0,0,0,122,0,122,0,182.6208872999996,,182.60022759996355,5,182.6208872999996,182.6208872999996,0.013298800215125084,184.17750209989026,0.07962962962962963,-0.1574074074074074,1,0,0,target,442296,001,2023-09-28_01h43.16.486,VISUAL SEARCH TUTORIAL 3 FINAL DATA,2023.2.1,60.117830950059606,2023-09-28 01h43.23.959007 +0530,
0,0,0,0,123,0,123,0,184.21551709994674,,184.18142480030656,10,184.21551709994674,184.21551709994674,0.024262599647045135,185.56084370007738,0.4444444444444444,0.32407407407407407,1,0,0,target,442296,001,2023-09-28_01h43.16.486,VISUAL SEARCH TUTORIAL 3 FINAL DATA,2023.2.1,60.117830950059606,2023-09-28 01h43.23.959007 +0530,
0,0,0,0,124,0,124,0,185.58343840017915,,185.56293930020183,5,185.58343840017915,185.58343840017915,0.01464689988642931,186.89234400028363,0.020370370370370372,0.2851851851851852,1,0,0,target,442296,001,2023-09-28_01h43.16.486,VISUAL SEARCH TUTORIAL 3 FINAL DATA,2023.2.1,60.117830950059606,2023-09-28 01h43.23.959007 +0530,
0,0,0,0,125,0,125,0,186.93135210033506,,186.89633279992267,10,186.93135210033506,186.93135210033506,0.02663609990850091,188.4069393002428,0.09259259259259259,0.053703703703703705,1,0,0,target,442296,001,2023-09-28_01h43.16.486,VISUAL SEARCH TUTORIAL 3 FINAL DATA,2023.2.1,60.117830950059606,2023-09-28 01h43.23.959007 +0530,
0,0,0,0,126,0,126,0,188.4320014002733,,188.41151140024886,5,188.4320014002733,188.4320014002733,0.015509600285440683,189.75672669988126,-0.1787037037037037,-0.4324074074074074,1,0,0,target,442296,001,2023-09-28_01h43.16.486,VISUAL SEARCH TUTORIAL 3 FINAL DATA,2023.2.1,60.117830950059606,2023-09-28 01h43.23.959007 +0530,
0,0,0,0,127,0,127,0,189.8063884000294,,189.76043750019744,10,189.8063884000294,189.8063884000294,0.034550399985164404,190.95482240011916,0.075,-0.225,1,0,0,target,442296,001,2023-09-28_01h43.16.486,VISUAL SEARCH TUTORIAL 3 FINAL DATA,2023.2.1,60.117830950059606,2023-09-28 01h43.23.959007 +0530,
0,0,0,0,128,0,128,0,190.97762060025707,,190.95767980022356,5,190.97762060025707,190.97762060025707,0.014221999794244766,192.67042810004205,0.1574074074074074,0.43703703703703706,1,0,0,target,442296,001,2023-09-28_01h43.16.486,VISUAL SEARCH TUTORIAL 3 FINAL DATA,2023.2.1,60.117830950059606,2023-09-28 01h43.23.959007 +0530,
0,0,0,0,129,0,129,0,192.70070510031655,,192.67598870024085,5,192.70070510031655,192.70070510031655,0.018386400304734707,193.78536550002173,0.2324074074074074,0.49907407407407406,1,0,0,target,442296,001,2023-09-28_01h43.16.486,VISUAL SEARCH TUTORIAL 3 FINAL DATA,2023.2.1,60.117830950059606,2023-09-28 01h43.23.959007 +0530,
0,0,0,0,130,0,130,0,193.8294231002219,,193.7880199002102,10,193.8294231002219,193.8294231002219,0.02897239988669753,195.1345466999337,-0.41203703703703703,0.03148148148148148,1,0,0,target,442296,001,2023-09-28_01h43.16.486,VISUAL SEARCH TUTORIAL 3 FINAL DATA,2023.2.1,60.117830950059606,2023-09-28 01h43.23.959007 +0530,
0,0,0,0,131,0,131,0,195.1797593999654,,195.1398169999011,10,195.1797593999654,195.1797593999654,0.02939610043540597,196.4667696999386,-0.17037037037037037,-0.1648148148148148,1,0,0,target,442296,001,2023-09-28_01h43.16.486,VISUAL SEARCH TUTORIAL 3 FINAL DATA,2023.2.1,60.117830950059606,2023-09-28 01h43.23.959007 +0530,
0,0,0,0,132,0,132,0,196.49389549996704,,196.46943690022454,5,196.49389549996704,196.49389549996704,0.01675030030310154,197.63200340000913,-0.4638888888888889,-0.2574074074074074,1,0,0,target,442296,001,2023-09-28_01h43.16.486,VISUAL SEARCH TUTORIAL 3 FINAL DATA,2023.2.1,60.117830950059606,2023-09-28 01h43.23.959007 +0530,
0,0,0,0,133,0,133,0,197.67177300015464,,197.63444110006094,10,197.67177300015464,197.67177300015464,0.02851200010627508,200.48047980014235,0.49444444444444446,0.10277777777777777,1,0,0,target,442296,001,2023-09-28_01h43.16.486,VISUAL SEARCH TUTORIAL 3 FINAL DATA,2023.2.1,60.117830950059606,2023-09-28 01h43.23.959007 +0530,
0,0,0,0,134,0,134,0,200.51547880005091,,200.48276840010658,10,200.51547880005091,200.51547880005091,0.023396399803459644,202.0948487003334,-0.25277777777777777,0.20833333333333334,1,0,0,target,442296,001,2023-09-28_01h43.16.486,VISUAL SEARCH TUTORIAL 3 FINAL DATA,2023.2.1,60.117830950059606,2023-09-28 01h43.23.959007 +0530,
0,0,0,0,135,0,135,0,202.13050610013306,,202.09696560027078,10,202.13050610013306,202.13050610013306,0.022204500157386065,204.36102609988302,-0.14074074074074075,-0.2574074074074074,1,0,0,target,442296,001,2023-09-28_01h43.16.486,VISUAL SEARCH TUTORIAL 3 FINAL DATA,2023.2.1,60.117830950059606,2023-09-28 01h43.23.959007 +0530,
0,0,0,0,136,0,136,0,204.3891346002929,,204.36337039992213,5,204.3891346002929,204.3891346002929,0.014699300285428762,205.52603009995073,0.0962962962962963,0.27314814814814814,1,0,0,target,442296,001,2023-09-28_01h43.16.486,VISUAL SEARCH TUTORIAL 3 FINAL DATA,2023.2.1,60.117830950059606,2023-09-28 01h43.23.959007 +0530,
0,0,0,0,137,0,137,0,205.5520760002546,,205.53124879999086,5,205.5520760002546,205.5520760002546,0.0157365002669394,206.65800959989429,0.1675925925925926,-0.03611111111111111,1,0,0,target,442296,001,2023-09-28_01h43.16.486,VISUAL SEARCH TUTORIAL 3 FINAL DATA,2023.2.1,60.117830950059606,2023-09-28 01h43.23.959007 +0530,
0,0,0,0,138,0,138,0,206.68201800016686,,206.66326639987528,5,206.68201800016686,206.68201800016686,0.013831700198352337,207.6566449003294,-0.45,0.08611111111111111,1,0,0,target,442296,001,2023-09-28_01h43.16.486,VISUAL SEARCH TUTORIAL 3 FINAL DATA,2023.2.1,60.117830950059606,2023-09-28 01h43.23.959007 +0530,
0,0,0,0,139,0,139,0,207.6972082001157,,207.6587975001894,10,207.6972082001157,207.6972082001157,0.029168799985200167,208.9058250002563,-0.43703703703703706,-0.20925925925925926,1,0,0,target,442296,001,2023-09-28_01h43.16.486,VISUAL SEARCH TUTORIAL 3 FINAL DATA,2023.2.1,60.117830950059606,2023-09-28 01h43.23.959007 +0530,
0,0,0,0,140,0,140,0,208.94068490015343,,208.90978300012648,5,208.94068490015343,208.94068490015343,0.02348849968984723,210.35435979999602,0.42777777777777776,0.42314814814814816,1,0,0,target,442296,001,2023-09-28_01h43.16.486,VISUAL SEARCH TUTORIAL 3 FINAL DATA,2023.2.1,60.117830950059606,2023-09-28 01h43.23.959007 +0530,
0,0,0,0,141,0,141,0,210.37745580030605,,210.35709859989583,5,210.37745580030605,210.37745580030605,0.014769699890166521,211.81972860032693,0.2222222222222222,-0.2037037037037037,1,0,0,,442296,001,2023-09-28_01h43.16.486,VISUAL SEARCH TUTORIAL 3 FINAL DATA,2023.2.1,60.117830950059606,2023-09-28 01h43.23.959007 +0530,
0,0,0,0,142,0,142,0,211.83958830032498,,211.82166530005634,5,211.83958830032498,211.83958830032498,0.011821100022643805,213.53513900004327,-0.5009259259259259,0.021296296296296296,1,0,0,target,442296,001,2023-09-28_01h43.16.486,VISUAL SEARCH TUTORIAL 3 FINAL DATA,2023.2.1,60.117830950059606,2023-09-28 01h43.23.959007 +0530,
0,0,0,0,143,0,143,0,213.581473399885,,213.53954340005293,10,213.581473399885,213.581473399885,0.027976199984550476,214.9338477998972,-0.17314814814814813,-0.006481481481481481,1,0,0,target,442296,001,2023-09-28_01h43.16.486,VISUAL SEARCH TUTORIAL 3 FINAL DATA,2023.2.1,60.117830950059606,2023-09-28 01h43.23.959007 +0530,
0,0,0,0,144,0,144,0,215.05096150003374,,214.93610320007429,10,215.05096150003374,215.05096150003374,0.10607080021873116,216.0978524000384,-0.19722222222222222,0.15,1,0,0,target,442296,001,2023-09-28_01h43.16.486,VISUAL SEARCH TUTORIAL 3 FINAL DATA,2023.2.1,60.117830950059606,2023-09-28 01h43.23.959007 +0530,
0,0,0,0,145,0,145,0,216.16706270026043,,216.10443670023233,10,216.16706270026043,216.16706270026043,0.05026109982281923,217.66496080020443,-0.3907407407407407,0.5,1,0,0,target,442296,001,2023-09-28_01h43.16.486,VISUAL SEARCH TUTORIAL 3 FINAL DATA,2023.2.1,60.117830950059606,2023-09-28 01h43.23.959007 +0530,
0,0,0,0,146,0,146,0,217.7080644001253,,217.66923539992422,10,217.7080644001253,217.7080644001253,0.030997700057923794,219.81320190010592,0.48703703703703705,0.11018518518518519,1,0,0,target,442296,001,2023-09-28_01h43.16.486,VISUAL SEARCH TUTORIAL 3 FINAL DATA,2023.2.1,60.117830950059606,2023-09-28 01h43.23.959007 +0530,
0,0,0,0,147,0,147,0,219.85527510009706,,219.81564710009843,10,219.85527510009706,219.85527510009706,0.026388700120151043,221.14487730013207,0.23981481481481481,0.23148148148148148,1,0,0,target,442296,001,2023-09-28_01h43.16.486,VISUAL SEARCH TUTORIAL 3 FINAL DATA,2023.2.1,60.117830950059606,2023-09-28 01h43.23.959007 +0530,
0,0,0,0,148,0,148,0,221.16499789990485,,221.14742070017383,5,221.16499789990485,221.16499789990485,0.011487999930977821,222.2284220000729,-0.14166666666666666,0.03981481481481482,1,0,0,target,442296,001,2023-09-28_01h43.16.486,VISUAL SEARCH TUTORIAL 3 FINAL DATA,2023.2.1,60.117830950059606,2023-09-28 01h43.23.959007 +0530,
0,0,0,0,149,0,149,0,222.25032490026206,,222.23166240006685,5,222.25032490026206,222.25032490026206,0.011039800010621548,223.44411920011044,-0.31666666666666665,-0.16018518518518518,1,0,0,target,442296,001,2023-09-28_01h43.16.486,VISUAL SEARCH TUTORIAL 3 FINAL DATA,2023.2.1,60.117830950059606,2023-09-28 01h43.23.959007 +0530,
0,0,0,0,150,0,150,0,223.48182210000232,,223.44788470026106,10,223.48182210000232,223.48182210000232,0.022879099939018488,225.85874349996448,-0.33055555555555555,0.40925925925925927,1,0,0,target,442296,001,2023-09-28_01h43.16.486,VISUAL SEARCH TUTORIAL 3 FINAL DATA,2023.2.1,60.117830950059606,2023-09-28 01h43.23.959007 +0530,
0,0,0,0,151,0,151,0,225.87893520016223,,225.86141239991412,5,225.87893520016223,225.87893520016223,0.010400899685919285,227.49050489999354,0.35833333333333334,0.44537037037037036,1,0,0,target,442296,001,2023-09-28_01h43.16.486,VISUAL SEARCH TUTORIAL 3 FINAL DATA,2023.2.1,60.117830950059606,2023-09-28 01h43.23.959007 +0530,
0,0,0,0,152,0,152,0,227.51756500033662,,227.4948277999647,5,227.51756500033662,227.51756500033662,0.016903600189834833,228.73876250023022,-0.3611111111111111,0.08425925925925926,1,0,0,target,442296,001,2023-09-28_01h43.16.486,VISUAL SEARCH TUTORIAL 3 FINAL DATA,2023.2.1,60.117830950059606,2023-09-28 01h43.23.959007 +0530,
0,0,0,0,153,0,153,0,228.78521170001477,,228.7413237001747,10,228.78521170001477,228.78521170001477,0.030507400166243315,231.13725339993834,-0.3416666666666667,0.36203703703703705,1,0,0,target,442296,001,2023-09-28_01h43.16.486,VISUAL SEARCH TUTORIAL 3 FINAL DATA,2023.2.1,60.117830950059606,2023-09-28 01h43.23.959007 +0530,
0,0,0,0,154,0,154,0,231.17418939992785,,231.13991500018165,10,231.17418939992785,231.17418939992785,0.022255700081586838,232.53559260023758,-0.5027777777777778,0.44351851851851853,1,0,0,,442296,001,2023-09-28_01h43.16.486,VISUAL SEARCH TUTORIAL 3 FINAL DATA,2023.2.1,60.117830950059606,2023-09-28 01h43.23.959007 +0530,
0,0,0,0,155,0,155,0,232.56217420008034,,232.5385195002891,5,232.56217420008034,232.56217420008034,0.01495270011946559,234.25247769989073,0.18333333333333332,-0.4101851851851852,1,0,0,target,442296,001,2023-09-28_01h43.16.486,VISUAL SEARCH TUTORIAL 3 FINAL DATA,2023.2.1,60.117830950059606,2023-09-28 01h43.23.959007 +0530,
0,0,0,0,156,0,156,0,234.27862320002168,,234.25666010007262,5,234.27862320002168,234.27862320002168,0.013485599774867296,235.53334490023553,-0.06481481481481481,-0.2074074074074074,1,0,0,,442296,001,2023-09-28_01h43.16.486,VISUAL SEARCH TUTORIAL 3 FINAL DATA,2023.2.1,60.117830950059606,2023-09-28 01h43.23.959007 +0530,
0,0,0,0,157,0,157,0,235.5579972001724,,235.53682280005887,5,235.5579972001724,235.5579972001724,0.01443140022456646,236.76566109992564,-0.1675925925925926,-0.31851851851851853,1,0,0,target,442296,001,2023-09-28_01h43.16.486,VISUAL SEARCH TUTORIAL 3 FINAL DATA,2023.2.1,60.117830950059606,2023-09-28 01h43.23.959007 +0530,
0,0,0,0,158,0,158,0,236.7876929002814,,236.76783129991964,5,236.7876929002814,236.7876929002814,0.012591400183737278,238.09749859990552,-0.21388888888888888,-0.001851851851851852,1,0,0,target,442296,001,2023-09-28_01h43.16.486,VISUAL SEARCH TUTORIAL 3 FINAL DATA,2023.2.1,60.117830950059606,2023-09-28 01h43.23.959007 +0530,
0,0,0,0,159,0,159,0,238.11866350006312,,238.10038990015164,5,238.11866350006312,238.11866350006312,0.01154240034520626,239.42951230006292,0.1824074074074074,0.38796296296296295,1,0,0,target,442296,001,2023-09-28_01h43.16.486,VISUAL SEARCH TUTORIAL 3 FINAL DATA,2023.2.1,60.117830950059606,2023-09-28 01h43.23.959007 +0530,
0,0,0,0,160,0,160,0,239.4677579002455,,239.43287230003625,10,239.4677579002455,239.4677579002455,0.021965499967336655,240.66208840021864,0.3351851851851852,0.2740740740740741,1,0,0,target,442296,001,2023-09-28_01h43.16.486,VISUAL SEARCH TUTORIAL 3 FINAL DATA,2023.2.1,60.117830950059606,2023-09-28 01h43.23.959007 +0530,
0,0,0,0,161,0,161,0,240.68144810013473,,240.66419710032642,5,240.68144810013473,240.68144810013473,0.01082600001245737,242.0439848001115,0.13240740740740742,0.262037037037037,1,0,0,target,442296,001,2023-09-28_01h43.16.486,VISUAL SEARCH TUTORIAL 3 FINAL DATA,2023.2.1,60.117830950059606,2023-09-28 01h43.23.959007 +0530,
0,0,0,0,162,0,162,0,242.06421389989555,,242.04619880020618,5,242.06421389989555,242.06421389989555,0.010197199881076813,243.09290869999677,-0.05925925925925926,0.18611111111111112,1,0,0,target,442296,001,2023-09-28_01h43.16.486,VISUAL SEARCH TUTORIAL 3 FINAL DATA,2023.2.1,60.117830950059606,2023-09-28 01h43.23.959007 +0530,
0,0,0,0,163,0,163,0,243.13332140026614,,243.09539639996365,10,243.13332140026614,243.13332140026614,0.02529349969699979,244.2104013999924,0.14351851851851852,0.049074074074074076,1,0,0,target,442296,001,2023-09-28_01h43.16.486,VISUAL SEARCH TUTORIAL 3 FINAL DATA,2023.2.1,60.117830950059606,2023-09-28 01h43.23.959007 +0530,
0,0,0,0,164,0,164,0,244.23657120019197,,244.21261220006272,5,244.23657120019197,244.23657120019197,0.015864700078964233,245.79119670018554,0.17037037037037037,0.4722222222222222,1,0,0,target,442296,001,2023-09-28_01h43.16.486,VISUAL SEARCH TUTORIAL 3 FINAL DATA,2023.2.1,60.117830950059606,2023-09-28 01h43.23.959007 +0530,
0,0,0,0,165,0,165,0,245.8170278002508,,245.7951867999509,5,245.8170278002508,245.8170278002508,0.014525600243359804,247.18967710016295,-0.125,0.3333333333333333,1,0,0,target,442296,001,2023-09-28_01h43.16.486,VISUAL SEARCH TUTORIAL 3 FINAL DATA,2023.2.1,60.117830950059606,2023-09-28 01h43.23.959007 +0530,
0,0,0,0,166,0,166,0,247.20964180026203,,247.19179090019315,5,247.20964180026203,247.20964180026203,0.010550899896770716,248.5218909000978,0.30277777777777776,0.32314814814814813,1,0,0,target,442296,001,2023-09-28_01h43.16.486,VISUAL SEARCH TUTORIAL 3 FINAL DATA,2023.2.1,60.117830950059606,2023-09-28 01h43.23.959007 +0530,
0,0,0,0,167,0,167,0,248.55764110013843,,248.52414670027792,10,248.55764110013843,248.55764110013843,0.021560499910265207,249.7541690003127,-0.4046296296296296,0.21296296296296297,1,0,0,target,442296,001,2023-09-28_01h43.16.486,VISUAL SEARCH TUTORIAL 3 FINAL DATA,2023.2.1,60.117830950059606,2023-09-28 01h43.23.959007 +0530,
0,0,0,0,168,0,168,0,249.79326290031895,,249.7579733999446,10,249.79326290031895,249.79326290031895,0.02178659988567233,252.10203219996765,0.39166666666666666,0.11481481481481481,1,0,0,target,442296,001,2023-09-28_01h43.16.486,VISUAL SEARCH TUTORIAL 3 FINAL DATA,2023.2.1,60.117830950059606,2023-09-28 01h43.23.959007 +0530,
0,0,0,0,169,0,169,0,252.12158029992133,,252.10423969989643,5,252.12158029992133,252.12158029992133,0.010131500195711851,253.76804500026628,-0.19537037037037036,-0.46111111111111114,1,0,0,target,442296,001,2023-09-28_01h43.16.486,VISUAL SEARCH TUTORIAL 3 FINAL DATA,2023.2.1,60.117830950059606,2023-09-28 01h43.23.959007 +0530,
0,0,0,0,170,0,170,0,253.7945075999014,,253.77217729995027,5,253.7945075999014,253.7945075999014,0.01647639973089099,255.5825328999199,0.36574074074074076,0.014814814814814815,1,0,0,target,442296,001,2023-09-28_01h43.16.486,VISUAL SEARCH TUTORIAL 3 FINAL DATA,2023.2.1,60.117830950059606,2023-09-28 01h43.23.959007 +0530,
0,0,0,0,171,0,171,0,255.60662259999663,,255.58568629994988,5,255.60662259999663,255.60662259999663,0.013660000171512365,256.78147480031475,0.3648148148148148,-0.19722222222222222,1,0,0,,442296,001,2023-09-28_01h43.16.486,VISUAL SEARCH TUTORIAL 3 FINAL DATA,2023.2.1,60.117830950059606,2023-09-28 01h43.23.959007 +0530,
0,0,0,0,172,0,172,0,256.8040803000331,,256.78456229995936,5,256.8040803000331,256.8040803000331,0.0121674002148211,258.7789982999675,0.24814814814814815,0.44074074074074077,1,0,0,target,442296,001,2023-09-28_01h43.16.486,VISUAL SEARCH TUTORIAL 3 FINAL DATA,2023.2.1,60.117830950059606,2023-09-28 01h43.23.959007 +0530,
0,0,0,0,173,0,173,0,258.81284940009937,,258.78134950017557,10,258.81284940009937,258.81284940009937,0.020892899949103594,260.4613290000707,-0.2962962962962963,0.3138888888888889,1,0,0,target,442296,001,2023-09-28_01h43.16.486,VISUAL SEARCH TUTORIAL 3 FINAL DATA,2023.2.1,60.117830950059606,2023-09-28 01h43.23.959007 +0530,
0,0,0,0,174,0,174,0,260.48184640007094,,260.46349880006164,5,260.48184640007094,260.48184640007094,0.011139700189232826,262.02827430004254,0.1824074074074074,0.1925925925925926,1,0,0,target,442296,001,2023-09-28_01h43.16.486,VISUAL SEARCH TUTORIAL 3 FINAL DATA,2023.2.1,60.117830950059606,2023-09-28 01h43.23.959007 +0530,
0,0,0,0,175,0,175,0,262.06352190021425,,262.0304101998918,10,262.06352190021425,262.06352190021425,0.020532300230115652,263.6750313001685,-0.4,-0.04351851851851852,1,0,0,,442296,001,2023-09-28_01h43.16.486,VISUAL SEARCH TUTORIAL 3 FINAL DATA,2023.2.1,60.117830950059606,2023-09-28 01h43.23.959007 +0530,
0,0,0,0,176,0,176,0,263.70979019999504,,263.67725430009887,10,263.70979019999504,263.70979019999504,0.021779099944978952,265.44078390020877,0.35462962962962963,-0.47962962962962963,1,0,0,target,442296,001,2023-09-28_01h43.16.486,VISUAL SEARCH TUTORIAL 3 FINAL DATA,2023.2.1,60.117830950059606,2023-09-28 01h43.23.959007 +0530,
0,0,0,0,177,0,177,0,265.4664966003038,,265.44374389993027,5,265.4664966003038,265.4664966003038,0.015050200279802084,267.10626710020006,-0.1259259259259259,0.31203703703703706,1,0,0,target,442296,001,2023-09-28_01h43.16.486,VISUAL SEARCH TUTORIAL 3 FINAL DATA,2023.2.1,60.117830950059606,2023-09-28 01h43.23.959007 +0530,
0,0,0,0,178,0,178,0,267.1448297002353,,267.11031479993835,10,267.1448297002353,267.1448297002353,0.02362110000103712,269.2376593002118,0.4861111111111111,-0.3351851851851852,1,0,0,target,442296,001,2023-09-28_01h43.16.486,VISUAL SEARCH TUTORIAL 3 FINAL DATA,2023.2.1,60.117830950059606,2023-09-28 01h43.23.959007 +0530,
0,0,0,0,179,0,179,0,269.27421780023724,,269.2399043003097,10,269.27421780023724,269.27421780023724,0.02177669992670417,271.001694700215,0.003703703703703704,-0.2916666666666667,1,0,0,target,442296,001,2023-09-28_01h43.16.486,VISUAL SEARCH TUTORIAL 3 FINAL DATA,2023.2.1,60.117830950059606,2023-09-28 01h43.23.959007 +0530,
0,0,0,0,180,0,180,0,271.0361279998906,,271.0038272999227,10,271.0361279998906,271.0361279998906,0.021204799879342318,273.3341967999004,-0.4185185185185185,-0.4638888888888889,1,0,0,target,442296,001,2023-09-28_01h43.16.486,VISUAL SEARCH TUTORIAL 3 FINAL DATA,2023.2.1,60.117830950059606,2023-09-28 01h43.23.959007 +0530,
0,0,0,0,181,0,181,0,273.3564961999655,,273.33743390021846,5,273.3564961999655,273.3564961999655,0.013126099947839975,274.66608250001445,-0.23333333333333334,-0.25833333333333336,1,0,0,target,442296,001,2023-09-28_01h43.16.486,VISUAL SEARCH TUTORIAL 3 FINAL DATA,2023.2.1,60.117830950059606,2023-09-28 01h43.23.959007 +0530,
0,0,0,0,182,0,182,0,274.70298229996115,,274.6684089000337,10,274.70298229996115,274.70298229996115,0.022207200061529875,276.33020940003917,0.19074074074074074,-0.27685185185185185,1,0,0,target,442296,001,2023-09-28_01h43.16.486,VISUAL SEARCH TUTORIAL 3 FINAL DATA,2023.2.1,60.117830950059606,2023-09-28 01h43.23.959007 +0530,
0,0,0,0,183,0,183,0,276.3600393999368,,276.33462550025433,5,276.3600393999368,276.3600393999368,0.01977670006453991,277.9672612003051,0.1111111111111111,0.4074074074074074,1,0,0,target,442296,001,2023-09-28_01h43.16.486,VISUAL SEARCH TUTORIAL 3 FINAL DATA,2023.2.1,60.117830950059606,2023-09-28 01h43.23.959007 +0530,
0,0,0,0,184,0,184,0,277.9910693001002,,277.97142089996487,5,277.9910693001002,277.9910693001002,0.011889699846506119,279.4618517002091,0.04722222222222222,-0.1,1,0,0,target,442296,001,2023-09-28_01h43.16.486,VISUAL SEARCH TUTORIAL 3 FINAL DATA,2023.2.1,60.117830950059606,2023-09-28 01h43.23.959007 +0530,
0,0,0,0,185,0,185,0,279.5024572000839,,279.46594109991565,10,279.5024572000839,279.5024572000839,0.02471640007570386,281.1265382999554,-0.3592592592592593,0.0787037037037037,1,0,0,target,442296,001,2023-09-28_01h43.16.486,VISUAL SEARCH TUTORIAL 3 FINAL DATA,2023.2.1,60.117830950059606,2023-09-28 01h43.23.959007 +0530,
0,0,0,0,186,0,186,0,281.16329680010676,,281.1286603999324,10,281.16329680010676,281.16329680010676,0.021017500199377537,282.5924448999576,-0.4824074074074074,-0.013888888888888888,1,0,0,target,442296,001,2023-09-28_01h43.16.486,VISUAL SEARCH TUTORIAL 3 FINAL DATA,2023.2.1,60.117830950059606,2023-09-28 01h43.23.959007 +0530,
0,0,0,0,187,0,187,0,282.62732400000095,,282.5948390001431,10,282.62732400000095,282.62732400000095,0.020692899823188782,284.8580001001246,0.41944444444444445,-0.06388888888888888,1,0,0,target,442296,001,2023-09-28_01h43.16.486,VISUAL SEARCH TUTORIAL 3 FINAL DATA,2023.2.1,60.117830950059606,2023-09-28 01h43.23.959007 +0530,
0,0,0,0,188,0,188,0,284.89380470011383,,284.86011440027505,10,284.89380470011383,284.89380470011383,0.020336599554866552,286.65505410032347,0.0962962962962963,0.275,1,0,0,target,442296,001,2023-09-28_01h43.16.486,VISUAL SEARCH TUTORIAL 3 FINAL DATA,2023.2.1,60.117830950059606,2023-09-28 01h43.23.959007 +0530,
0,0,0,0,189,0,189,0,286.67615330033004,,286.6572374003008,5,286.67615330033004,286.67615330033004,0.010808899998664856,288.45386329991743,0.37592592592592594,0.32037037037037036,1,0,0,target,442296,001,2023-09-28_01h43.16.486,VISUAL SEARCH TUTORIAL 3 FINAL DATA,2023.2.1,60.117830950059606,2023-09-28 01h43.23.959007 +0530,
0,0,0,0,190,0,190,0,288.47493309993297,,288.45674580009654,5,288.47493309993297,288.47493309993297,0.01088580023497343,289.8351869001053,0.17314814814814813,0.33425925925925926,1,0,0,target,442296,001,2023-09-28_01h43.16.486,VISUAL SEARCH TUTORIAL 3 FINAL DATA,2023.2.1,60.117830950059606,2023-09-28 01h43.23.959007 +0530,
0,0,0,0,191,0,191,0,289.85831050015986,,289.8375671999529,5,289.85831050015986,289.85831050015986,0.010846700053662062,291.33407020010054,0.15648148148148147,0.03425925925925926,1,0,0,target,442296,001,2023-09-28_01h43.16.486,VISUAL SEARCH TUTORIAL 3 FINAL DATA,2023.2.1,60.117830950059606,2023-09-28 01h43.23.959007 +0530,
0,0,0,0,192,0,192,0,291.36991620017216,,291.3361828001216,10,291.36991620017216,291.36991620017216,0.02088400023058057,293.36744440020993,-0.375,-0.2175925925925926,1,0,0,target,442296,001,2023-09-28_01h43.16.486,VISUAL SEARCH TUTORIAL 3 FINAL DATA,2023.2.1,60.117830950059606,2023-09-28 01h43.23.959007 +0530,
0,0,0,0,193,0,193,0,293.3884156001732,,293.3697536000982,5,293.3884156001732,293.3884156001732,0.011237700004130602,294.6812430000864,-0.06481481481481481,-0.42314814814814816,1,0,0,target,442296,001,2023-09-28_01h43.16.486,VISUAL SEARCH TUTORIAL 3 FINAL DATA,2023.2.1,60.117830950059606,2023-09-28 01h43.23.959007 +0530,
0,0,0,0,194,0,194,0,294.70389100024477,,294.6842872002162,5,294.70389100024477,294.70389100024477,0.010903799906373024,296.3469899999909,0.09259259259259259,0.22037037037037038,1,0,0,target,442296,001,2023-09-28_01h43.16.486,VISUAL SEARCH TUTORIAL 3 FINAL DATA,2023.2.1,60.117830950059606,2023-09-28 01h43.23.959007 +0530,
0,0,0,0,195,0,195,0,296.3861088003032,,296.3499934999272,10,296.3861088003032,296.3861088003032,0.024157000239938498,297.64589160028845,0.001851851851851852,-0.3351851851851852,1,0,0,target,442296,001,2023-09-28_01h43.16.486,VISUAL SEARCH TUTORIAL 3 FINAL DATA,2023.2.1,60.117830950059606,2023-09-28 01h43.23.959007 +0530,
0,0,0,0,196,0,196,0,297.66877620015293,,297.64919990021735,5,297.66877620015293,297.66877620015293,0.012948700226843357,299.21070430008695,-0.3398148148148148,0.24814814814814815,1,0,0,target,442296,001,2023-09-28_01h43.16.486,VISUAL SEARCH TUTORIAL 3 FINAL DATA,2023.2.1,60.117830950059606,2023-09-28 01h43.23.959007 +0530,
0,0,0,0,197,0,197,0,299.2324137003161,,299.21325020026416,5,299.2324137003161,299.2324137003161,0.0103411003947258,301.39236380020157,-0.25462962962962965,-0.44351851851851853,1,0,0,target,442296,001,2023-09-28_01h43.16.486,VISUAL SEARCH TUTORIAL 3 FINAL DATA,2023.2.1,60.117830950059606,2023-09-28 01h43.23.959007 +0530,
0,0,0,0,198,0,198,0,301.42700520018116,,301.394520400092,10,301.42700520018116,301.42700520018116,0.02105229999870062,303.20695930020884,-0.31666666666666665,-0.4675925925925926,1,0,0,target,442296,001,2023-09-28_01h43.16.486,VISUAL SEARCH TUTORIAL 3 FINAL DATA,2023.2.1,60.117830950059606,2023-09-28 01h43.23.959007 +0530,
0,0,0,0,199,0,199,0,303.2484257998876,,303.2110188002698,10,303.2484257998876,303.2484257998876,0.0283524002879858,305.19053710019216,-0.1935185185185185,0.48518518518518516,1,0,0,target,442296,001,2023-09-28_01h43.16.486,VISUAL SEARCH TUTORIAL 3 FINAL DATA,2023.2.1,60.117830950059606,2023-09-28 01h43.23.959007 +0530,
0,0,0,0,,,,,,,,,,,,,,,,,,,442296,001,2023-09-28_01h43.16.486,VISUAL SEARCH TUTORIAL 3 FINAL DATA,2023.2.1,60.117830950059606,2023-09-28 01h43.23.959007 +0530,
1,0,1,0,0,0,0,0,305.2139083002694,,305.19466020027176,5,305.2139083002694,305.2139083002694,0.01315179979428649,306.63838230026886,-0.44166666666666665,0.013888888888888888,1,0,0,target,442296,001,2023-09-28_01h43.16.486,VISUAL SEARCH TUTORIAL 3 FINAL DATA,2023.2.1,60.117830950059606,2023-09-28 01h43.23.959007 +0530,
1,0,1,0,1,0,1,0,306.6788246999495,,306.64267549989745,10,306.6788246999495,306.6788246999495,0.02510249987244606,308.4524707002565,-0.42962962962962964,-0.412962962962963,1,0,0,target,442296,001,2023-09-28_01h43.16.486,VISUAL SEARCH TUTORIAL 3 FINAL DATA,2023.2.1,60.117830950059606,2023-09-28 01h43.23.959007 +0530,
1,0,1,0,2,0,2,0,308.47360230004415,,308.4547822000459,5,308.47360230004415,308.47360230004415,0.011001599952578545,310.1524346000515,-0.10555555555555556,0.3509259259259259,1,0,0,target,442296,001,2023-09-28_01h43.16.486,VISUAL SEARCH TUTORIAL 3 FINAL DATA,2023.2.1,60.117830950059606,2023-09-28 01h43.23.959007 +0530,
1,0,1,0,3,0,3,0,310.1730494000949,,310.15462130028754,5,310.1730494000949,310.1730494000949,0.010334200225770473,311.3673713002354,0.016666666666666666,-0.28888888888888886,1,0,0,target,442296,001,2023-09-28_01h43.16.486,VISUAL SEARCH TUTORIAL 3 FINAL DATA,2023.2.1,60.117830950059606,2023-09-28 01h43.23.959007 +0530,
1,0,1,0,4,0,4,0,311.3892985000275,,311.37082890002057,5,311.3892985000275,311.3892985000275,0.011551199946552515,312.9157217000611,0.3490740740740741,-0.4388888888888889,1,0,0,target,442296,001,2023-09-28_01h43.16.486,VISUAL SEARCH TUTORIAL 3 FINAL DATA,2023.2.1,60.117830950059606,2023-09-28 01h43.23.959007 +0530,
1,0,1,0,5,0,5,0,312.9386105001904,,312.9187179002911,5,312.9386105001904,312.9386105001904,0.011908599641174078,314.6652196999639,0.46574074074074073,-0.22037037037037038,1,0,0,target,442296,001,2023-09-28_01h43.16.486,VISUAL SEARCH TUTORIAL 3 FINAL DATA,2023.2.1,60.117830950059606,2023-09-28 01h43.23.959007 +0530,
1,0,1,0,6,0,6,0,314.6865508998744,,314.66751739988104,5,314.6865508998744,314.6865508998744,0.010587399825453758,316.7459117001854,-0.2759259259259259,0.42962962962962964,1,0,0,target,442296,001,2023-09-28_01h43.16.486,VISUAL SEARCH TUTORIAL 3 FINAL DATA,2023.2.1,60.117830950059606,2023-09-28 01h43.23.959007 +0530,
1,0,1,0,7,0,7,0,316.7680828999728,,316.74896820029244,5,316.7680828999728,316.7680828999728,0.010995399672538042,317.97893230011687,-0.42592592592592593,-0.03148148148148148,1,0,0,target,442296,001,2023-09-28_01h43.16.486,VISUAL SEARCH TUTORIAL 3 FINAL DATA,2023.2.1,60.117830950059606,2023-09-28 01h43.23.959007 +0530,
1,0,1,0,8,0,8,0,318.0064912000671,,317.981404799968,5,318.0064912000671,318.0064912000671,0.01698810001835227,319.3435252001509,-0.1361111111111111,-0.3990740740740741,1,0,0,target,442296,001,2023-09-28_01h43.16.486,VISUAL SEARCH TUTORIAL 3 FINAL DATA,2023.2.1,60.117830950059606,2023-09-28 01h43.23.959007 +0530,
1,0,1,0,9,0,9,0,319.36906500020996,,319.34753250004724,5,319.36906500020996,319.36906500020996,0.014857499860227108,320.5602657003328,-0.2222222222222222,-0.41574074074074074,1,0,0,target,442296,001,2023-09-28_01h43.16.486,VISUAL SEARCH TUTORIAL 3 FINAL DATA,2023.2.1,60.117830950059606,2023-09-28 01h43.23.959007 +0530,
1,0,1,0,10,0,10,0,320.5974058001302,,320.5634873001836,10,320.5974058001302,320.5974058001302,0.021099500358104706,322.2937934999354,-0.26666666666666666,0.09537037037037037,1,0,0,target,442296,001,2023-09-28_01h43.16.486,VISUAL SEARCH TUTORIAL 3 FINAL DATA,2023.2.1,60.117830950059606,2023-09-28 01h43.23.959007 +0530,
1,0,1,0,11,0,11,0,322.3174606002867,,322.29691820032895,5,322.3174606002867,322.3174606002867,0.01194409979507327,323.9396693999879,0.04814814814814815,-0.24444444444444444,1,0,0,target,442296,001,2023-09-28_01h43.16.486,VISUAL SEARCH TUTORIAL 3 FINAL DATA,2023.2.1,60.117830950059606,2023-09-28 01h43.23.959007 +0530,
1,0,1,0,12,0,12,0,323.95964640006423,,323.9421451999806,5,323.95964640006423,323.95964640006423,0.010330099612474442,325.3713151002303,-0.1,0.17222222222222222,1,0,0,target,442296,001,2023-09-28_01h43.16.486,VISUAL SEARCH TUTORIAL 3 FINAL DATA,2023.2.1,60.117830950059606,2023-09-28 01h43.23.959007 +0530,
1,0,1,0,13,0,13,0,325.39199540019035,,325.37377330008894,5,325.39199540019035,325.39199540019035,0.010540199931710958,327.0362591999583,-0.13518518518518519,-0.4305555555555556,1,0,0,target,442296,001,2023-09-28_01h43.16.486,VISUAL SEARCH TUTORIAL 3 FINAL DATA,2023.2.1,60.117830950059606,2023-09-28 01h43.23.959007 +0530,
1,0,1,0,14,0,14,0,327.071738100145,,327.03844270017,10,327.071738100145,327.071738100145,0.019627199973911047,328.93472150014713,0.3648148148148148,-0.17592592592592593,1,0,0,,442296,001,2023-09-28_01h43.16.486,VISUAL SEARCH TUTORIAL 3 FINAL DATA,2023.2.1,60.117830950059606,2023-09-28 01h43.23.959007 +0530,
1,0,1,0,15,0,15,0,328.9712980003096,,328.93664100021124,10,328.9712980003096,328.9712980003096,0.0198250999674201,330.68484540004283,0.10740740740740741,-0.4537037037037037,1,0,0,target,442296,001,2023-09-28_01h43.16.486,VISUAL SEARCH TUTORIAL 3 FINAL DATA,2023.2.1,60.117830950059606,2023-09-28 01h43.23.959007 +0530,
1,0,1,0,16,0,16,0,330.72479370003566,,330.68824540032074,10,330.72479370003566,330.72479370003566,0.024109700229018927,332.4159145001322,-0.2851851851851852,0.15,1,0,0,target,442296,001,2023-09-28_01h43.16.486,VISUAL SEARCH TUTORIAL 3 FINAL DATA,2023.2.1,60.117830950059606,2023-09-28 01h43.23.959007 +0530,
1,0,1,0,17,0,17,0,332.43764850031585,,332.4190477998927,5,332.43764850031585,332.43764850031585,0.011327399872243404,333.9637607000768,0.3175925925925926,-0.32592592592592595,1,0,0,target,442296,001,2023-09-28_01h43.16.486,VISUAL SEARCH TUTORIAL 3 FINAL DATA,2023.2.1,60.117830950059606,2023-09-28 01h43.23.959007 +0530,
1,0,1,0,18,0,18,0,333.9989642999135,,333.9658834002912,10,333.9989642999135,333.9989642999135,0.020456299651414156,335.27877929992974,-0.26666666666666666,-0.24166666666666667,1,0,0,target,442296,001,2023-09-28_01h43.16.486,VISUAL SEARCH TUTORIAL 3 FINAL DATA,2023.2.1,60.117830950059606,2023-09-28 01h43.23.959007 +0530,
1,0,1,0,19,0,19,0,335.3232364002615,,335.28273619990796,10,335.3232364002615,335.3232364002615,0.030480799730867147,337.4105501999147,0.4009259259259259,0.09722222222222222,1,0,0,target,442296,001,2023-09-28_01h43.16.486,VISUAL SEARCH TUTORIAL 3 FINAL DATA,2023.2.1,60.117830950059606,2023-09-28 01h43.23.959007 +0530,
1,0,1,0,20,0,20,0,337.4460926000029,,337.413818300236,10,337.4460926000029,337.4460926000029,0.02113319979980588,338.8428429001942,-0.4666666666666667,-0.06018518518518518,1,0,0,,442296,001,2023-09-28_01h43.16.486,VISUAL SEARCH TUTORIAL 3 FINAL DATA,2023.2.1,60.117830950059606,2023-09-28 01h43.23.959007 +0530,
1,0,1,0,21,0,21,0,338.8777262000367,,338.84468910004944,10,338.8777262000367,338.8777262000367,0.020333699882030487,340.07555680023506,-0.3351851851851852,0.004629629629629629,1,0,0,target,442296,001,2023-09-28_01h43.16.486,VISUAL SEARCH TUTORIAL 3 FINAL DATA,2023.2.1,60.117830950059606,2023-09-28 01h43.23.959007 +0530,
1,0,1,0,22,0,22,0,340.09713190002367,,340.0778508000076,5,340.09713190002367,340.09713190002367,0.01260560005903244,341.4405739000067,-0.45740740740740743,-0.41388888888888886,1,0,0,target,442296,001,2023-09-28_01h43.16.486,VISUAL SEARCH TUTORIAL 3 FINAL DATA,2023.2.1,60.117830950059606,2023-09-28 01h43.23.959007 +0530,
1,0,1,0,23,0,23,0,341.4792960002087,,341.4440132002346,10,341.4792960002087,341.4792960002087,0.023530800361186266,342.8565092002973,-0.23796296296296296,0.000925925925925926,1,0,0,target,442296,001,2023-09-28_01h43.16.486,VISUAL SEARCH TUTORIAL 3 FINAL DATA,2023.2.1,60.117830950059606,2023-09-28 01h43.23.959007 +0530,
1,0,1,0,24,0,24,0,342.8941935002804,,342.8593208002858,10,342.8941935002804,342.8941935002804,0.022317799739539623,344.50503019988537,0.03888888888888889,0.29444444444444445,1,0,0,,442296,001,2023-09-28_01h43.16.486,VISUAL SEARCH TUTORIAL 3 FINAL DATA,2023.2.1,60.117830950059606,2023-09-28 01h43.23.959007 +0530,
1,0,1,0,25,0,25,0,344.5268665999174,,344.5081601003185,5,344.5268665999174,344.5268665999174,0.011844700202345848,345.92068520002067,0.037037037037037035,0.25462962962962965,1,0,0,target,442296,001,2023-09-28_01h43.16.486,VISUAL SEARCH TUTORIAL 3 FINAL DATA,2023.2.1,60.117830950059606,2023-09-28 01h43.23.959007 +0530,
1,0,1,0,26,0,26,0,345.9601225000806,,345.92486259993166,10,345.9601225000806,345.9601225000806,0.023620400112122297,347.23562250006944,-0.07685185185185185,-0.31574074074074077,1,0,0,target,442296,001,2023-09-28_01h43.16.486,VISUAL SEARCH TUTORIAL 3 FINAL DATA,2023.2.1,60.117830950059606,2023-09-28 01h43.23.959007 +0530,
1,0,1,0,27,0,27,0,347.27020299993455,,347.23773010028526,10,347.27020299993455,347.27020299993455,0.020758400205522776,349.43334680004045,0.4703703703703704,-0.10740740740740741,1,0,0,target,442296,001,2023-09-28_01h43.16.486,VISUAL SEARCH TUTORIAL 3 FINAL DATA,2023.2.1,60.117830950059606,2023-09-28 01h43.23.959007 +0530,
1,0,1,0,28,0,28,0,349.4658101000823,,349.43549189995974,10,349.4658101000823,349.4658101000823,0.020380700007081032,351.2323018000461,0.33240740740740743,-0.28425925925925927,1,0,0,target,442296,001,2023-09-28_01h43.16.486,VISUAL SEARCH TUTORIAL 3 FINAL DATA,2023.2.1,60.117830950059606,2023-09-28 01h43.23.959007 +0530,
1,0,1,0,29,0,29,0,351.2696100003086,,351.2344003999606,10,351.2696100003086,351.2696100003086,0.02231340017169714,353.13045050017536,-0.11203703703703703,0.31203703703703706,1,0,0,target,442296,001,2023-09-28_01h43.16.486,VISUAL SEARCH TUTORIAL 3 FINAL DATA,2023.2.1,60.117830950059606,2023-09-28 01h43.23.959007 +0530,
1,0,1,0,30,0,30,0,353.1687496001832,,353.1334677003324,10,353.1687496001832,353.1687496001832,0.02353530004620552,355.26297010015696,-0.37037037037037035,-0.4324074074074074,1,0,0,target,442296,001,2023-09-28_01h43.16.486,VISUAL SEARCH TUTORIAL 3 FINAL DATA,2023.2.1,60.117830950059606,2023-09-28 01h43.23.959007 +0530,
1,0,1,0,31,0,31,0,355.2998401001096,,355.2653899001889,10,355.2998401001096,355.2998401001096,0.02154010022059083,357.0273246001452,0.09814814814814815,-0.1037037037037037,1,0,0,target,442296,001,2023-09-28_01h43.16.486,VISUAL SEARCH TUTORIAL 3 FINAL DATA,2023.2.1,60.117830950059606,2023-09-28 01h43.23.959007 +0530,
1,0,1,0,32,0,32,0,357.061304199975,,357.029513400048,10,357.061304199975,357.061304199975,0.020823700353503227,358.5935340002179,0.4287037037037037,-0.43703703703703706,1,0,0,,442296,001,2023-09-28_01h43.16.486,VISUAL SEARCH TUTORIAL 3 FINAL DATA,2023.2.1,60.117830950059606,2023-09-28 01h43.23.959007 +0530,
1,0,1,0,33,0,33,0,358.6149907000363,,358.5954669001512,5,358.6149907000363,358.6149907000363,0.010969500057399273,359.8577570999041,-0.17962962962962964,0.11666666666666667,1,0,0,target,442296,001,2023-09-28_01h43.16.486,VISUAL SEARCH TUTORIAL 3 FINAL DATA,2023.2.1,60.117830950059606,2023-09-28 01h43.23.959007 +0530,
1,0,1,0,34,0,34,0,359.87816479988396,,359.85985350003466,5,359.87816479988396,359.87816479988396,0.01025140006095171,362.15639659995213,0.4398148148148148,0.4388888888888889,1,0,0,target,442296,001,2023-09-28_01h43.16.486,VISUAL SEARCH TUTORIAL 3 FINAL DATA,2023.2.1,60.117830950059606,2023-09-28 01h43.23.959007 +0530,
1,0,1,0,35,0,35,0,362.19306260021403,,362.16035490017384,10,362.19306260021403,362.19306260021403,0.02154819993302226,363.88880190020427,0.43333333333333335,-0.14537037037037037,1,0,0,target,442296,001,2023-09-28_01h43.16.486,VISUAL SEARCH TUTORIAL 3 FINAL DATA,2023.2.1,60.117830950059606,2023-09-28 01h43.23.959007 +0530,
1,0,1,0,36,0,36,0,363.92360220011324,,363.89096949994564,10,363.92360220011324,363.92360220011324,0.020958999637514353,365.98574900021777,0.49537037037037035,-0.3296296296296296,1,0,0,target,442296,001,2023-09-28_01h43.16.486,VISUAL SEARCH TUTORIAL 3 FINAL DATA,2023.2.1,60.117830950059606,2023-09-28 01h43.23.959007 +0530,
1,0,1,0,37,0,37,0,366.0205363999121,,365.9880323000252,10,366.0205363999121,366.0205363999121,0.020178300328552723,368.2517981999554,0.21944444444444444,0.462037037037037,1,0,0,target,442296,001,2023-09-28_01h43.16.486,VISUAL SEARCH TUTORIAL 3 FINAL DATA,2023.2.1,60.117830950059606,2023-09-28 01h43.23.959007 +0530,
1,0,1,0,38,0,38,0,368.27248790021986,,368.25439639994875,5,368.27248790021986,368.27248790021986,0.01100619975477457,370.23257050011307,0.49537037037037035,-0.024074074074074074,1,0,0,target,442296,001,2023-09-28_01h43.16.486,VISUAL SEARCH TUTORIAL 3 FINAL DATA,2023.2.1,60.117830950059606,2023-09-28 01h43.23.959007 +0530,
1,0,1,0,39,0,39,0,370.2666481998749,,370.234710900113,10,370.2666481998749,370.2666481998749,0.02078750031068921,371.8306946000084,0.38055555555555554,-0.37037037037037035,1,0,0,target,442296,001,2023-09-28_01h43.16.486,VISUAL SEARCH TUTORIAL 3 FINAL DATA,2023.2.1,60.117830950059606,2023-09-28 01h43.23.959007 +0530,
1,0,1,0,40,0,40,0,371.8685278003104,,371.8345858003013,10,371.8685278003104,371.8685278003104,0.02386959968134761,373.01344260014594,-0.22037037037037038,-0.4009259259259259,1,0,0,target,442296,001,2023-09-28_01h43.16.486,VISUAL SEARCH TUTORIAL 3 FINAL DATA,2023.2.1,60.117830950059606,2023-09-28 01h43.23.959007 +0530,
1,0,1,0,41,0,41,0,373.0372505001724,,373.016944100149,5,373.0372505001724,373.0372505001724,0.014062500093132257,375.31129179988056,0.17962962962962964,0.46111111111111114,1,0,0,target,442296,001,2023-09-28_01h43.16.486,VISUAL SEARCH TUTORIAL 3 FINAL DATA,2023.2.1,60.117830950059606,2023-09-28 01h43.23.959007 +0530,
1,0,1,0,42,0,42,0,375.33442390011624,,375.31442809989676,5,375.33442390011624,375.33442390011624,0.011877499986439943,377.57619970012456,-0.3453703703703704,0.3148148148148148,1,0,0,target,442296,001,2023-09-28_01h43.16.486,VISUAL SEARCH TUTORIAL 3 FINAL DATA,2023.2.1,60.117830950059606,2023-09-28 01h43.23.959007 +0530,
1,0,1,0,43,0,43,0,377.61981699988246,,377.58022570004687,10,377.61981699988246,377.61981699988246,0.025655800011008978,378.7916072001681,-0.1685185185185185,-0.024074074074074074,1,0,0,target,442296,001,2023-09-28_01h43.16.486,VISUAL SEARCH TUTORIAL 3 FINAL DATA,2023.2.1,60.117830950059606,2023-09-28 01h43.23.959007 +0530,
1,0,1,0,44,0,44,0,378.81384989991784,,378.79387579998,5,378.81384989991784,378.81384989991784,0.011759399902075529,380.1739909001626,-0.44907407407407407,-0.22962962962962963,1,0,0,,442296,001,2023-09-28_01h43.16.486,VISUAL SEARCH TUTORIAL 3 FINAL DATA,2023.2.1,60.117830950059606,2023-09-28 01h43.23.959007 +0530,
1,0,1,0,45,0,45,0,380.1954393000342,,380.1763094002381,5,380.1954393000342,380.1954393000342,0.010823299642652273,382.1886824001558,0.45740740740740743,0.1425925925925926,1,0,0,target,442296,001,2023-09-28_01h43.16.486,VISUAL SEARCH TUTORIAL 3 FINAL DATA,2023.2.1,60.117830950059606,2023-09-28 01h43.23.959007 +0530,
1,0,1,0,46,0,46,0,382.21116070030257,,382.1923386002891,5,382.21116070030257,382.21116070030257,0.011518199928104877,385.8218745999038,0.26481481481481484,-0.3731481481481482,1,0,0,target,442296,001,2023-09-28_01h43.16.486,VISUAL SEARCH TUTORIAL 3 FINAL DATA,2023.2.1,60.117830950059606,2023-09-28 01h43.23.959007 +0530,
1,0,1,0,47,0,47,0,385.8558880002238,,385.82437829999253,10,385.8558880002238,385.8558880002238,0.02096919994801283,387.2675956999883,0.43703703703703706,-0.21666666666666667,1,0,0,target,442296,001,2023-09-28_01h43.16.486,VISUAL SEARCH TUTORIAL 3 FINAL DATA,2023.2.1,60.117830950059606,2023-09-28 01h43.23.959007 +0530,
1,0,1,0,48,0,48,0,387.28847400005907,,387.2701655998826,5,387.28847400005907,387.28847400005907,0.011400099843740463,389.066725499928,-0.44074074074074077,0.3212962962962963,1,0,0,target,442296,001,2023-09-28_01h43.16.486,VISUAL SEARCH TUTORIAL 3 FINAL DATA,2023.2.1,60.117830950059606,2023-09-28 01h43.23.959007 +0530,
1,0,1,0,49,0,49,0,389.09629200026393,,389.0714831999503,5,389.09629200026393,389.09629200026393,0.017471299972385168,391.59720339998603,0.4351851851851852,0.2962962962962963,1,0,0,target,442296,001,2023-09-28_01h43.16.486,VISUAL SEARCH TUTORIAL 3 FINAL DATA,2023.2.1,60.117830950059606,2023-09-28 01h43.23.959007 +0530,
1,0,1,0,50,0,50,0,391.6378135001287,,391.60194070031866,10,391.6378135001287,391.6378135001287,0.023514399770647287,392.8787744003348,0.17777777777777778,0.4166666666666667,1,0,0,,442296,001,2023-09-28_01h43.16.486,VISUAL SEARCH TUTORIAL 3 FINAL DATA,2023.2.1,60.117830950059606,2023-09-28 01h43.23.959007 +0530,
1,0,1,0,51,0,51,0,392.9136168002151,,392.88068709988147,10,392.9136168002151,392.9136168002151,0.021108699962496758,394.87690960010514,0.37222222222222223,-0.42685185185185187,1,0,0,target,442296,001,2023-09-28_01h43.16.486,VISUAL SEARCH TUTORIAL 3 FINAL DATA,2023.2.1,60.117830950059606,2023-09-28 01h43.23.959007 +0530,
1,0,1,0,52,0,52,0,394.9122556000948,,394.8790668998845,10,394.9122556000948,394.9122556000948,0.02100289985537529,396.2931687999517,0.36574074074074076,-0.28425925925925927,1,0,0,target,442296,001,2023-09-28_01h43.16.486,VISUAL SEARCH TUTORIAL 3 FINAL DATA,2023.2.1,60.117830950059606,2023-09-28 01h43.23.959007 +0530,
1,0,1,0,53,0,53,0,396.31724190013483,,396.29717040015385,5,396.31724190013483,396.31724190013483,0.013073200359940529,397.4916151999496,0.04537037037037037,-0.3175925925925926,1,0,0,target,442296,001,2023-09-28_01h43.16.486,VISUAL SEARCH TUTORIAL 3 FINAL DATA,2023.2.1,60.117830950059606,2023-09-28 01h43.23.959007 +0530,
1,0,1,0,54,0,54,0,397.5258973003365,,397.4937865999527,10,397.5258973003365,397.5258973003365,0.019357299897819757,398.607552499976,-0.31296296296296294,-0.003703703703703704,1,0,0,target,442296,001,2023-09-28_01h43.16.486,VISUAL SEARCH TUTORIAL 3 FINAL DATA,2023.2.1,60.117830950059606,2023-09-28 01h43.23.959007 +0530,
1,0,1,0,55,0,55,0,398.6466492000036,,398.6106865000911,10,398.6466492000036,398.6466492000036,0.023291199933737516,400.1898325001821,0.004629629629629629,0.17314814814814813,1,0,0,target,442296,001,2023-09-28_01h43.16.486,VISUAL SEARCH TUTORIAL 3 FINAL DATA,2023.2.1,60.117830950059606,2023-09-28 01h43.23.959007 +0530,
1,0,1,0,56,0,56,0,400.2107422002591,,400.1919980002567,5,400.2107422002591,400.2107422002591,0.010345300193876028,401.78825440024957,0.3731481481481482,-0.062037037037037036,1,0,0,,442296,001,2023-09-28_01h43.16.486,VISUAL SEARCH TUTORIAL 3 FINAL DATA,2023.2.1,60.117830950059606,2023-09-28 01h43.23.959007 +0530,
1,0,1,0,57,0,57,0,401.8242525001988,,401.7902561002411,10,401.8242525001988,401.8242525001988,0.02045329986140132,403.3539216001518,-0.39166666666666666,0.1388888888888889,1,0,0,target,442296,001,2023-09-28_01h43.16.486,VISUAL SEARCH TUTORIAL 3 FINAL DATA,2023.2.1,60.117830950059606,2023-09-28 01h43.23.959007 +0530,
1,0,1,0,58,0,58,0,403.38884979998693,,403.3560490999371,10,403.38884979998693,403.38884979998693,0.02020040014758706,404.83554770005867,-0.475,-0.3111111111111111,1,0,0,target,442296,001,2023-09-28_01h43.16.486,VISUAL SEARCH TUTORIAL 3 FINAL DATA,2023.2.1,60.117830950059606,2023-09-28 01h43.23.959007 +0530,
1,0,1,0,59,0,59,0,404.8566026999615,,404.8381194001995,5,404.8566026999615,404.8566026999615,0.01085920026525855,406.1384431999177,-0.032407407407407406,-0.46574074074074073,1,0,0,target,442296,001,2023-09-28_01h43.16.486,VISUAL SEARCH TUTORIAL 3 FINAL DATA,2023.2.1,60.117830950059606,2023-09-28 01h43.23.959007 +0530,
1,0,1,0,60,0,60,0,406.16145069990307,,406.1422407999635,5,406.16145069990307,406.16145069990307,0.01205269992351532,407.450033900328,0.18333333333333332,-0.10185185185185185,1,0,0,target,442296,001,2023-09-28_01h43.16.486,VISUAL SEARCH TUTORIAL 3 FINAL DATA,2023.2.1,60.117830950059606,2023-09-28 01h43.23.959007 +0530,
1,0,1,0,61,0,61,0,407.4855507998727,,407.4521552002989,10,407.4855507998727,407.4855507998727,0.02048980025574565,409.8308526002802,-0.058333333333333334,0.25462962962962965,1,0,0,target,442296,001,2023-09-28_01h43.16.486,VISUAL SEARCH TUTORIAL 3 FINAL DATA,2023.2.1,60.117830950059606,2023-09-28 01h43.23.959007 +0530,
1,0,1,0,62,0,62,0,409.85229169996455,,409.8337515001185,5,409.85229169996455,409.85229169996455,0.010903600137680769,412.19965460011736,0.4898148148148148,-0.3490740740740741,1,0,0,target,442296,001,2023-09-28_01h43.16.486,VISUAL SEARCH TUTORIAL 3 FINAL DATA,2023.2.1,60.117830950059606,2023-09-28 01h43.23.959007 +0530,
1,0,1,0,63,0,63,0,412.22400799999014,,412.2035889001563,5,412.22400799999014,412.22400799999014,0.013148400001227856,413.4945252002217,0.45925925925925926,0.08148148148148149,1,0,0,target,442296,001,2023-09-28_01h43.16.486,VISUAL SEARCH TUTORIAL 3 FINAL DATA,2023.2.1,60.117830950059606,2023-09-28 01h43.23.959007 +0530,
1,0,1,0,64,0,64,0,413.5318757998757,,413.49777750018984,10,413.5318757998757,413.5318757998757,0.02232650015503168,414.91015460016206,-0.2,0.09907407407407408,1,0,0,target,442296,001,2023-09-28_01h43.16.486,VISUAL SEARCH TUTORIAL 3 FINAL DATA,2023.2.1,60.117830950059606,2023-09-28 01h43.23.959007 +0530,
1,0,1,0,65,0,65,0,414.9314522999339,,414.912930900231,5,414.9314522999339,414.9314522999339,0.010744799859821796,416.0612496002577,-0.13796296296296295,-0.05555555555555555,1,0,0,target,442296,001,2023-09-28_01h43.16.486,VISUAL SEARCH TUTORIAL 3 FINAL DATA,2023.2.1,60.117830950059606,2023-09-28 01h43.23.959007 +0530,
1,0,1,0,66,0,66,0,416.0971857002005,,416.06406980007887,10,416.0971857002005,416.0971857002005,0.021893199998885393,417.4576624003239,-0.08703703703703704,0.39444444444444443,1,0,0,target,442296,001,2023-09-28_01h43.16.486,VISUAL SEARCH TUTORIAL 3 FINAL DATA,2023.2.1,60.117830950059606,2023-09-28 01h43.23.959007 +0530,
1,0,1,0,67,0,67,0,417.47872920008376,,417.4598666001111,5,417.47872920008376,417.47872920008376,0.013109299819916487,419.0595384002663,-0.31203703703703706,0.3398148148148148,1,0,0,target,442296,001,2023-09-28_01h43.16.486,VISUAL SEARCH TUTORIAL 3 FINAL DATA,2023.2.1,60.117830950059606,2023-09-28 01h43.23.959007 +0530,
1,0,1,0,68,0,68,0,419.09613460022956,,419.0632664998993,10,419.09613460022956,419.09613460022956,0.021552300080657005,420.9713278999552,0.3537037037037037,-0.3768518518518518,1,0,0,target,442296,001,2023-09-28_01h43.16.486,VISUAL SEARCH TUTORIAL 3 FINAL DATA,2023.2.1,60.117830950059606,2023-09-28 01h43.23.959007 +0530,
1,0,1,0,69,0,69,0,420.99375790031627,,420.9743817001581,5,420.99375790031627,420.99375790031627,0.011362799908965826,423.08723990013823,-0.3962962962962963,-0.27685185185185185,1,0,0,target,442296,001,2023-09-28_01h43.16.486,VISUAL SEARCH TUTORIAL 3 FINAL DATA,2023.2.1,60.117830950059606,2023-09-28 01h43.23.959007 +0530,
1,0,1,0,70,0,70,0,423.1221700999886,,423.0903281001374,10,423.1221700999886,423.1221700999886,0.021506300196051598,424.8191468999721,-0.024074074074074074,-0.26666666666666666,1,0,0,target,442296,001,2023-09-28_01h43.16.486,VISUAL SEARCH TUTORIAL 3 FINAL DATA,2023.2.1,60.117830950059606,2023-09-28 01h43.23.959007 +0530,
1,0,1,0,71,0,71,0,424.84094789996743,,424.82131890021265,5,424.84094789996743,424.84094789996743,0.01223629992455244,426.1845579002984,-0.1361111111111111,0.11481481481481481,1,0,0,target,442296,001,2023-09-28_01h43.16.486,VISUAL SEARCH TUTORIAL 3 FINAL DATA,2023.2.1,60.117830950059606,2023-09-28 01h43.23.959007 +0530,
1,0,1,0,72,0,72,0,426.2060344000347,,426.18670150032267,5,426.2060344000347,426.2060344000347,0.01083299983292818,427.3836594000459,-0.09074074074074075,0.2777777777777778,1,0,0,,442296,001,2023-09-28_01h43.16.486,VISUAL SEARCH TUTORIAL 3 FINAL DATA,2023.2.1,60.117830950059606,2023-09-28 01h43.23.959007 +0530,
1,0,1,0,73,0,73,0,427.40405930019915,,427.3855481999926,5,427.40405930019915,427.40405930019915,0.010238300077617168,429.04751370009035,-0.2537037037037037,0.47685185185185186,1,0,0,target,442296,001,2023-09-28_01h43.16.486,VISUAL SEARCH TUTORIAL 3 FINAL DATA,2023.2.1,60.117830950059606,2023-09-28 01h43.23.959007 +0530,
1,0,1,0,74,0,74,0,429.0683253002353,,429.0499844001606,5,429.0683253002353,429.0683253002353,0.010887100361287594,430.48028550017625,-0.41203703703703703,0.1388888888888889,1,0,0,target,442296,001,2023-09-28_01h43.16.486,VISUAL SEARCH TUTORIAL 3 FINAL DATA,2023.2.1,60.117830950059606,2023-09-28 01h43.23.959007 +0530,
1,0,1,0,75,0,75,0,430.50306680006906,,430.48407200025395,5,430.50306680006906,430.50306680006906,0.011820599902421236,432.561137100216,0.47314814814814815,0.36666666666666664,1,0,0,target,442296,001,2023-09-28_01h43.16.486,VISUAL SEARCH TUTORIAL 3 FINAL DATA,2023.2.1,60.117830950059606,2023-09-28 01h43.23.959007 +0530,
1,0,1,0,76,0,76,0,432.5957845998928,,432.5643571000546,10,432.5957845998928,432.5957845998928,0.020315600093454123,434.4458381999284,0.025,0.2898148148148148,1,0,0,target,442296,001,2023-09-28_01h43.16.486,VISUAL SEARCH TUTORIAL 3 FINAL DATA,2023.2.1,60.117830950059606,2023-09-28 01h43.23.959007 +0530,
1,0,1,0,77,0,77,0,434.471484800335,,434.4489521998912,5,434.471484800335,434.471484800335,0.012111700139939785,435.47568059992045,0.028703703703703703,0.33796296296296297,1,0,0,target,442296,001,2023-09-28_01h43.16.486,VISUAL SEARCH TUTORIAL 3 FINAL DATA,2023.2.1,60.117830950059606,2023-09-28 01h43.23.959007 +0530,
1,0,1,0,78,0,78,0,435.5163166001439,,435.4799478999339,10,435.5163166001439,435.5163166001439,0.024661199655383825,437.37377100018784,-0.22592592592592592,-0.4046296296296296,1,0,0,target,442296,001,2023-09-28_01h43.16.486,VISUAL SEARCH TUTORIAL 3 FINAL DATA,2023.2.1,60.117830950059606,2023-09-28 01h43.23.959007 +0530,
1,0,1,0,79,0,79,0,437.4073629002087,,437.3761056000367,10,437.4073629002087,437.4073629002087,0.02014020038768649,439.27283659996465,-0.11018518518518519,0.3416666666666667,1,0,0,target,442296,001,2023-09-28_01h43.16.486,VISUAL SEARCH TUTORIAL 3 FINAL DATA,2023.2.1,60.117830950059606,2023-09-28 01h43.23.959007 +0530,
1,0,1,0,80,0,80,0,439.2938180998899,,439.27501789992675,5,439.2938180998899,439.2938180998899,0.011011200025677681,441.0370895001106,0.26296296296296295,-0.4064814814814815,1,0,0,target,442296,001,2023-09-28_01h43.16.486,VISUAL SEARCH TUTORIAL 3 FINAL DATA,2023.2.1,60.117830950059606,2023-09-28 01h43.23.959007 +0530,
1,0,1,0,81,0,81,0,441.0576651999727,,441.03947590012103,5,441.0576651999727,441.0576651999727,0.010547500103712082,442.2197294002399,0.4203703703703704,-0.009259259259259259,1,0,0,target,442296,001,2023-09-28_01h43.16.486,VISUAL SEARCH TUTORIAL 3 FINAL DATA,2023.2.1,60.117830950059606,2023-09-28 01h43.23.959007 +0530,
1,0,1,0,82,0,82,0,442.2399641000666,,442.22200440010056,5,442.2399641000666,442.2399641000666,0.010163099970668554,443.5513440002687,-0.3453703703703704,-0.10648148148148148,1,0,0,,442296,001,2023-09-28_01h43.16.486,VISUAL SEARCH TUTORIAL 3 FINAL DATA,2023.2.1,60.117830950059606,2023-09-28 01h43.23.959007 +0530,
1,0,1,0,83,0,83,0,443.58662670012563,,443.55326110031456,10,443.58662670012563,443.58662670012563,0.019879399798810482,444.98406339995563,0.2064814814814815,0.44351851851851853,1,0,0,target,442296,001,2023-09-28_01h43.16.486,VISUAL SEARCH TUTORIAL 3 FINAL DATA,2023.2.1,60.117830950059606,2023-09-28 01h43.23.959007 +0530,
1,0,1,0,84,0,84,0,445.00861439993605,,444.98699470004067,5,445.00861439993605,445.00861439993605,0.01385139999911189,446.316291899886,0.14814814814814814,0.13055555555555556,1,0,0,target,442296,001,2023-09-28_01h43.16.486,VISUAL SEARCH TUTORIAL 3 FINAL DATA,2023.2.1,60.117830950059606,2023-09-28 01h43.23.959007 +0530,
1,0,1,0,85,0,85,0,446.3543153000064,,446.319049899932,10,446.3543153000064,446.3543153000064,0.020462799817323685,448.08100350014865,0.05,-0.29259259259259257,1,0,0,target,442296,001,2023-09-28_01h43.16.486,VISUAL SEARCH TUTORIAL 3 FINAL DATA,2023.2.1,60.117830950059606,2023-09-28 01h43.23.959007 +0530,
1,0,1,0,86,0,86,0,448.11705660028383,,448.0831335000694,10,448.11705660028383,448.11705660028383,0.02125649992376566,450.32904169987887,0.014814814814814815,-0.35462962962962963,1,0,0,target,442296,001,2023-09-28_01h43.16.486,VISUAL SEARCH TUTORIAL 3 FINAL DATA,2023.2.1,60.117830950059606,2023-09-28 01h43.23.959007 +0530,
1,0,1,0,87,0,87,0,450.3618268002756,,450.33122970024124,10,450.3618268002756,450.3618268002756,0.02162639982998371,451.5449250000529,0.075,-0.37407407407407406,1,0,0,target,442296,001,2023-09-28_01h43.16.486,VISUAL SEARCH TUTORIAL 3 FINAL DATA,2023.2.1,60.117830950059606,2023-09-28 01h43.23.959007 +0530,
1,0,1,0,88,0,88,0,451.5680408999324,,451.5479299998842,5,451.5680408999324,451.5680408999324,0.011737599968910217,452.77745359996334,0.12314814814814815,-0.4046296296296296,1,0,0,target,442296,001,2023-09-28_01h43.16.486,VISUAL SEARCH TUTORIAL 3 FINAL DATA,2023.2.1,60.117830950059606,2023-09-28 01h43.23.959007 +0530,
1,0,1,0,89,0,89,0,452.80333840008825,,452.7815044000745,5,452.80333840008825,452.80333840008825,0.013363299891352654,454.87649050028995,0.3509259259259259,0.2175925925925926,1,0,0,target,442296,001,2023-09-28_01h43.16.486,VISUAL SEARCH TUTORIAL 3 FINAL DATA,2023.2.1,60.117830950059606,2023-09-28 01h43.23.959007 +0530,
1,0,1,0,90,0,90,0,454.9927974999882,,454.8805583002977,10,454.9927974999882,454.9927974999882,0.10260049998760223,456.4728814000264,0.20277777777777778,0.5,1,0,0,target,442296,001,2023-09-28_01h43.16.486,VISUAL SEARCH TUTORIAL 3 FINAL DATA,2023.2.1,60.117830950059606,2023-09-28 01h43.23.959007 +0530,
1,0,1,0,91,0,91,0,456.5147835998796,,456.47534740017727,10,456.5147835998796,456.5147835998796,0.02657860005274415,458.7068809000775,-0.37962962962962965,0.3972222222222222,1,0,0,target,442296,001,2023-09-28_01h43.16.486,VISUAL SEARCH TUTORIAL 3 FINAL DATA,2023.2.1,60.117830950059606,2023-09-28 01h43.23.959007 +0530,
1,0,1,0,92,0,92,0,458.74419490015134,,458.709776900243,10,458.74419490015134,458.74419490015134,0.021371900103986263,460.5558827999048,0.4703703703703704,-0.35,1,0,0,target,442296,001,2023-09-28_01h43.16.486,VISUAL SEARCH TUTORIAL 3 FINAL DATA,2023.2.1,60.117830950059606,2023-09-28 01h43.23.959007 +0530,
1,0,1,0,93,0,93,0,460.59160399995744,,460.559643200133,10,460.59160399995744,460.59160399995744,0.021791100036352873,462.43580390000716,-0.3490740740740741,0.09351851851851851,1,0,0,target,442296,001,2023-09-28_01h43.16.486,VISUAL SEARCH TUTORIAL 3 FINAL DATA,2023.2.1,60.117830950059606,2023-09-28 01h43.23.959007 +0530,
1,0,1,0,94,0,94,0,462.4588804002851,,462.439398100134,5,462.4588804002851,462.4588804002851,0.011936400085687637,465.33329320000485,-0.1259259259259259,-0.39444444444444443,1,0,0,target,442296,001,2023-09-28_01h43.16.486,VISUAL SEARCH TUTORIAL 3 FINAL DATA,2023.2.1,60.117830950059606,2023-09-28 01h43.23.959007 +0530,
1,0,1,0,95,0,95,0,465.36812400026247,,465.33613099996,10,465.36812400026247,465.36812400026247,0.0205547995865345,467.3638808000833,-0.4101851851851852,0.42685185185185187,1,0,0,target,442296,001,2023-09-28_01h43.16.486,VISUAL SEARCH TUTORIAL 3 FINAL DATA,2023.2.1,60.117830950059606,2023-09-28 01h43.23.959007 +0530,
1,0,1,0,96,0,96,0,467.4001339999959,,467.3661199999042,10,467.4001339999959,467.4001339999959,0.022596899885684252,469.66182740032673,-0.10185185185185185,-0.2962962962962963,1,0,0,target,442296,001,2023-09-28_01h43.16.486,VISUAL SEARCH TUTORIAL 3 FINAL DATA,2023.2.1,60.117830950059606,2023-09-28 01h43.23.959007 +0530,
1,0,1,0,97,0,97,0,469.69658289989457,,469.66397979995236,10,469.69658289989457,469.69658289989457,0.019892700016498566,471.17982139997184,0.19444444444444445,-0.47685185185185186,1,0,0,target,442296,001,2023-09-28_01h43.16.486,VISUAL SEARCH TUTORIAL 3 FINAL DATA,2023.2.1,60.117830950059606,2023-09-28 01h43.23.959007 +0530,
1,0,1,0,98,0,98,0,471.2012964002788,,471.1827473999001,5,471.2012964002788,471.2012964002788,0.011383899953216314,472.7300885999575,-0.08425925925925926,-0.2953703703703704,1,0,0,target,442296,001,2023-09-28_01h43.16.486,VISUAL SEARCH TUTORIAL 3 FINAL DATA,2023.2.1,60.117830950059606,2023-09-28 01h43.23.959007 +0530,
1,0,1,0,99,0,99,0,472.7525281002745,,472.7334223999642,5,472.7525281002745,472.7525281002745,0.011942599900066853,474.6245945999399,-0.4740740740740741,-0.3074074074074074,1,0,0,target,442296,001,2023-09-28_01h43.16.486,VISUAL SEARCH TUTORIAL 3 FINAL DATA,2023.2.1,60.117830950059606,2023-09-28 01h43.23.959007 +0530,
1,0,1,0,100,0,100,0,474.64616170013323,,474.6269825999625,5,474.64616170013323,474.64616170013323,0.01098350016400218,476.3747101998888,0.2222222222222222,0.1925925925925926,1,0,0,target,442296,001,2023-09-28_01h43.16.486,VISUAL SEARCH TUTORIAL 3 FINAL DATA,2023.2.1,60.117830950059606,2023-09-28 01h43.23.959007 +0530,
1,0,1,0,101,0,101,0,476.3951282999478,,476.37729200022295,5,476.3951282999478,476.3951282999478,0.010828900150954723,477.8884495999664,0.08333333333333333,0.35555555555555557,1,0,0,target,442296,001,2023-09-28_01h43.16.486,VISUAL SEARCH TUTORIAL 3 FINAL DATA,2023.2.1,60.117830950059606,2023-09-28 01h43.23.959007 +0530,
1,0,1,0,102,0,102,0,477.91151149990037,,477.89180519990623,5,477.91151149990037,477.91151149990037,0.01259359996765852,479.0383854000829,-0.09259259259259259,0.15925925925925927,1,0,0,target,442296,001,2023-09-28_01h43.16.486,VISUAL SEARCH TUTORIAL 3 FINAL DATA,2023.2.1,60.117830950059606,2023-09-28 01h43.23.959007 +0530,
1,0,1,0,103,0,103,0,479.0795901999809,,479.0405438002199,10,479.0795901999809,479.0795901999809,0.027080200146883726,480.3197770998813,-0.21574074074074073,0.32222222222222224,1,0,0,target,442296,001,2023-09-28_01h43.16.486,VISUAL SEARCH TUTORIAL 3 FINAL DATA,2023.2.1,60.117830950059606,2023-09-28 01h43.23.959007 +0530,
1,0,1,0,104,0,104,0,480.3549041999504,,480.32196559989825,10,480.3549041999504,480.3549041999504,0.02095470018684864,482.01782889990136,-0.1712962962962963,0.42407407407407405,1,0,0,target,442296,001,2023-09-28_01h43.16.486,VISUAL SEARCH TUTORIAL 3 FINAL DATA,2023.2.1,60.117830950059606,2023-09-28 01h43.23.959007 +0530,
1,0,1,0,105,0,105,0,482.0401933998801,,482.02062189998105,5,482.0401933998801,482.0401933998801,0.010517000220716,482.98548960033804,-0.20555555555555555,0.43148148148148147,1,0,0,target,442296,001,2023-09-28_01h43.16.486,VISUAL SEARCH TUTORIAL 3 FINAL DATA,2023.2.1,60.117830950059606,2023-09-28 01h43.23.959007 +0530,
1,0,1,0,106,0,106,0,483.007876700256,,482.98786019999534,5,483.007876700256,483.007876700256,0.011796100065112114,484.4161606999114,0.3037037037037037,0.3925925925925926,1,0,0,,442296,001,2023-09-28_01h43.16.486,VISUAL SEARCH TUTORIAL 3 FINAL DATA,2023.2.1,60.117830950059606,2023-09-28 01h43.23.959007 +0530,
1,0,1,0,107,0,107,0,484.43804170005023,,484.41953160008416,5,484.43804170005023,484.43804170005023,0.01228239992633462,486.33111480018124,0.32314814814814813,-0.24074074074074073,1,0,0,,442296,001,2023-09-28_01h43.16.486,VISUAL SEARCH TUTORIAL 3 FINAL DATA,2023.2.1,60.117830950059606,2023-09-28 01h43.23.959007 +0530,
1,0,1,0,108,0,108,0,486.3658239003271,,486.333863100037,10,486.3658239003271,486.3658239003271,0.020816699601709843,488.2797854002565,-0.4898148148148148,0.4,1,0,0,target,442296,001,2023-09-28_01h43.16.486,VISUAL SEARCH TUTORIAL 3 FINAL DATA,2023.2.1,60.117830950059606,2023-09-28 01h43.23.959007 +0530,
1,0,1,0,109,0,109,0,488.3015469000675,,488.2822843003087,5,488.3015469000675,488.3015469000675,0.011125300079584122,489.9813195001334,-0.2388888888888889,-0.35648148148148145,1,0,0,target,442296,001,2023-09-28_01h43.16.486,VISUAL SEARCH TUTORIAL 3 FINAL DATA,2023.2.1,60.117830950059606,2023-09-28 01h43.23.959007 +0530,
1,0,1,0,110,0,110,0,490.0152186001651,,489.9834349001758,10,490.0152186001651,490.0152186001651,0.020202099811285734,491.2929743002169,-0.31666666666666665,-0.34814814814814815,1,0,0,target,442296,001,2023-09-28_01h43.16.486,VISUAL SEARCH TUTORIAL 3 FINAL DATA,2023.2.1,60.117830950059606,2023-09-28 01h43.23.959007 +0530,
